Counter	Acc_X	Acc_Y	Acc_Z	Gyr_X	Gyr_Y	Gyr_Z	Mag_X	Mag_Y	Mag_Z	Roll	Pitch	Yaw	Latitude	Longitude	Altitude	Vel_X	Vel_Y	Vel_Z	
44315	0.389548	-0.246837	9.787989	-0.004073	0.013677	0.076276	0.331525	0.157594	0.342544	-1.850855	-2.088984	1.896105	0.000000000	0.000000000	0.000000	0.000000	0.000000	0.000000	
44316	0.387673	-0.232417	9.768312	-0.010600	0.006653	0.068231	0.330524	0.154591	0.340712	-1.853952	-2.084357	1.930270	0.000000000	0.000000000	0.000000	0.000000	0.000000	0.000000	
44317	0.453407	-0.245008	9.749907	-0.009237	0.001312	0.048680	0.332612	0.157356	0.340711	-1.856530	-2.082844	1.955803	0.000000000	0.000000000	0.000000	0.000000	0.000000	0.000000	
44318	0.462669	-0.264300	9.768086	-0.008928	-0.002250	0.037961	0.331594	0.154086	0.341411	-1.858307	-2.082931	1.977121	0.000000000	0.000000000	0.000000	0.000000	0.000000	0.000000	
44319	0.419869	-0.271149	9.774791	0.006422	-0.004468	0.043653	0.332574	0.155301	0.342140	-1.853282	-2.084309	2.000344	0.000000000	0.000000000	0.000000	0.000000	0.000000	0.000000	
44320	0.450208	-0.259406	9.751913	-0.000499	-0.008877	0.053531	0.330558	0.154427	0.341256	-1.851310	-2.087319	2.027160	0.000000000	0.000000000	0.000000	0.000000	0.000000	0.000000	
44321	0.496630	-0.264644	9.714034	0.004367	-0.009838	0.043416	0.331697	0.156321	0.341440	-1.847225	-2.091344	2.050353	0.000000000	0.000000000	0.000000	0.000000	0.000000	0.000000	
44322	0.509331	-0.279142	9.744819	0.012024	-0.000864	0.022828	0.330813	0.152316	0.343390	-1.838736	-2.091007	2.065703	0.000000000	0.000000000	0.000000	0.000000	0.000000	0.000000	
44323	0.475529	-0.240361	9.769754	0.011749	0.005402	0.034427	0.333080	0.156355	0.344009	-1.830919	-2.087990	2.084370	0.000000000	0.000000000	0.000000	0.000000	0.000000	0.000000	
44324	0.509544	-0.182983	9.730379	0.016027	-0.000818	-0.000939	0.332419	0.153524	0.341019	-1.820104	-2.087996	2.086118	0.000000000	0.000000000	0.000000	0.000000	0.000000	0.000000	
44325	0.566708	-0.149773	9.752292	0.016246	-0.006062	-0.032349	0.333440	0.156450	0.341796	-1.808878	-2.091586	2.073072	0.000000000	0.000000000	0.000000	0.000000	0.000000	0.000000	
44326	0.607877	-0.087556	9.791665	0.040432	0.006089	-0.047126	0.331094	0.153962	0.341882	-1.785603	-2.088989	2.052151	0.000000000	0.000000000	0.000000	0.000000	0.000000	0.000000	
44327	0.648495	-0.083097	9.782248	0.038484	0.011789	-0.085191	0.333276	0.155224	0.340247	-1.762671	-2.085011	2.013603	0.000000000	0.000000000	0.000000	0.000000	0.000000	0.000000	
44328	0.805440	-0.151792	9.726734	0.042643	-0.012310	-0.154577	0.331655	0.153720	0.340775	-1.736481	-2.092744	1.943997	0.000000000	0.000000000	0.000000	0.000000	0.000000	0.000000	
44329	0.884422	-0.339927	9.787618	0.047349	-0.008691	-0.175468	0.332510	0.156984	0.342839	-1.707704	-2.100129	1.862643	0.000000000	0.000000000	0.000000	0.000000	0.000000	0.000000	
44330	0.456433	-0.389175	9.859554	0.048407	0.028108	-0.134251	0.330801	0.155801	0.342410	-1.679088	-2.088216	1.799411	0.000000000	0.000000000	0.000000	0.000000	0.000000	0.000000	
44331	0.120650	-0.400873	9.797340	0.039345	0.033707	-0.124798	0.332237	0.157856	0.341696	-1.655081	-2.074517	1.741663	0.000000000	0.000000000	0.000000	0.000000	0.000000	0.000000	
44332	0.169288	-0.415791	9.720816	0.042100	0.037296	-0.130732	0.330752	0.155025	0.342179	-1.629563	-2.058116	1.683054	0.000000000	0.000000000	0.000000	0.000000	0.000000	0.000000	
44333	0.241144	-0.387428	9.817560	0.047883	0.026341	-0.137958	0.330297	0.159337	0.341097	-1.601369	-2.047939	1.619134	0.000000000	0.000000000	0.000000	0.000000	0.000000	0.000000	
44334	0.271911	-0.418877	9.874944	0.052049	0.035197	-0.124835	0.330349	0.157180	0.341880	-1.571230	-2.032402	1.560495	0.000000000	0.000000000	0.000000	0.000000	0.000000	0.000000	
44335	0.195878	-0.367799	9.831282	0.043964	0.033555	-0.118764	0.329691	0.158377	0.342526	-1.545337	-2.018374	1.505659	0.000000000	0.000000000	0.000000	0.000000	0.000000	0.000000	
44336	0.143981	-0.273670	9.763993	0.033193	0.020132	-0.096807	0.329076	0.158612	0.341371	-1.524705	-2.009617	1.460569	0.000000000	0.000000000	0.000000	0.000000	0.000000	0.000000	
44337	0.106587	-0.302236	9.742170	0.021533	0.026694	-0.087643	0.331331	0.159504	0.341622	-1.510080	-1.998267	1.420690	0.000000000	0.000000000	0.000000	0.000000	0.000000	0.000000	
44338	0.092923	-0.343019	9.723351	0.013621	0.019393	-0.043700	0.328585	0.157046	0.341654	-1.499691	-1.989174	1.403967	0.000000000	0.000000000	0.000000	0.000000	0.000000	0.000000	
44339	0.080789	-0.352518	9.738821	0.007269	0.014009	-0.024745	0.330382	0.160168	0.340268	-1.492995	-1.982894	1.394285	0.000000000	0.000000000	0.000000	0.000000	0.000000	0.000000	
44340	0.035322	-0.318434	9.776858	0.009142	0.015522	0.016853	0.328369	0.157334	0.341478	-1.485751	-1.974892	1.404358	0.000000000	0.000000000	0.000000	0.000000	0.000000	0.000000	
44341	0.041819	-0.301623	9.806895	-0.019134	-0.000329	0.061667	0.330479	0.160913	0.341038	-1.493124	-1.974166	1.436119	0.000000000	0.000000000	0.000000	0.000000	0.000000	0.000000	
44342	0.170868	-0.285855	9.818477	-0.005119	0.005621	0.067157	0.330127	0.157511	0.340905	-1.493519	-1.970263	1.470939	0.000000000	0.000000000	0.000000	0.000000	0.000000	0.000000	
44343	0.370130	-0.287564	9.775735	-0.011610	-0.013171	0.061033	0.330933	0.159834	0.340889	-1.497310	-1.975620	1.502556	0.000000000	0.000000000	0.000000	0.000000	0.000000	0.000000	
44344	0.445401	-0.273754	9.785334	-0.004805	-0.013398	0.070965	0.328590	0.156838	0.340604	-1.497630	-1.980745	1.538375	0.000000000	0.000000000	0.000000	0.000000	0.000000	0.000000	
44345	0.394355	-0.282932	9.798283	-0.007718	0.002939	0.072261	0.331694	0.159255	0.340888	-1.499755	-1.978323	1.575155	0.000000000	0.000000000	0.000000	0.000000	0.000000	0.000000	
44346	0.291387	-0.294099	9.794890	-0.002968	-0.006307	0.087334	0.329566	0.156780	0.340471	-1.499465	-1.979857	1.619428	0.000000000	0.000000000	0.000000	0.000000	0.000000	0.000000	
44347	0.239677	-0.351368	9.800395	-0.015253	-0.000662	0.100923	0.331106	0.159535	0.341326	-1.505702	-1.978737	1.669942	0.000000000	0.000000000	0.000000	0.000000	0.000000	0.000000	
44348	0.296158	-0.368676	9.795400	-0.015770	0.009247	0.108902	0.329573	0.155928	0.341578	-1.511870	-1.972569	1.724331	0.000000000	0.000000000	0.000000	0.000000	0.000000	0.000000	
44349	0.362336	-0.354775	9.818435	-0.010549	0.004764	0.080873	0.331670	0.158059	0.341080	-1.515588	-1.969092	1.765202	0.000000000	0.000000000	0.000000	0.000000	0.000000	0.000000	
44350	0.423220	-0.312008	9.814079	0.008641	0.009843	0.060070	0.329688	0.156295	0.341972	-1.509291	-1.963251	1.795383	0.000000000	0.000000000	0.000000	0.000000	0.000000	0.000000	
44351	0.477633	-0.274005	9.801598	0.005822	-0.007189	0.047200	0.331616	0.158299	0.341591	-1.504658	-1.965982	1.820326	0.000000000	0.000000000	0.000000	0.000000	0.000000	0.000000	
44352	0.494770	-0.240497	9.791661	0.014141	0.006271	0.030256	0.330064	0.155795	0.340986	-1.495247	-1.962226	1.837731	0.000000000	0.000000000	0.000000	0.000000	0.000000	0.000000	
44353	0.538197	-0.207224	9.768045	0.028190	0.008865	-0.007422	0.332046	0.159340	0.341328	-1.479002	-1.958101	1.836391	0.000000000	0.000000000	0.000000	0.000000	0.000000	0.000000	
44354	0.493329	-0.158762	9.767262	0.013735	0.012047	-0.026518	0.330136	0.156068	0.340716	-1.468855	-1.952293	1.826100	0.000000000	0.000000000	0.000000	0.000000	0.000000	0.000000	
44355	0.396263	-0.157983	9.740315	0.018956	0.000148	-0.023060	0.331406	0.157652	0.341597	-1.456697	-1.952590	1.817399	0.000000000	0.000000000	0.000000	0.000000	0.000000	0.000000	
44356	0.381450	-0.186720	9.733527	0.003349	0.019499	-0.019900	0.330370	0.155568	0.342365	-1.451615	-1.943141	1.810975	0.000000000	0.000000000	0.000000	0.000000	0.000000	0.000000	
44357	0.384801	-0.210765	9.758245	0.020549	0.010020	-0.017493	0.331916	0.158924	0.341863	-1.438743	-1.938686	1.804814	0.000000000	0.000000000	0.000000	0.000000	0.000000	0.000000	
44358	0.337183	-0.191139	9.752210	0.013708	0.002046	-0.016592	0.329452	0.156577	0.341926	-1.428777	-1.937525	1.798050	0.000000000	0.000000000	0.000000	0.000000	0.000000	0.000000	
44359	0.276327	-0.205045	9.763904	0.017905	-0.000735	-0.022308	0.331340	0.160570	0.341435	-1.417056	-1.938233	1.789716	0.000000000	0.000000000	0.000000	0.000000	0.000000	0.000000	
44360	0.185619	-0.206651	9.801001	0.008700	0.032074	-0.028273	0.329321	0.156805	0.340305	-1.409282	-1.922875	1.778362	0.000000000	0.000000000	0.000000	0.000000	0.000000	0.000000	
44361	0.282090	-0.229109	9.788928	0.010668	0.032852	-0.015394	0.331200	0.159814	0.340926	-1.401096	-1.907394	1.772933	0.000000000	0.000000000	0.000000	0.000000	0.000000	0.000000	
44362	0.360539	-0.253879	9.725913	0.001946	0.010450	-0.012827	0.329421	0.156232	0.341011	-1.396805	-1.902175	1.769998	0.000000000	0.000000000	0.000000	0.000000	0.000000	0.000000	
44363	0.373946	-0.205919	9.710657	-0.007313	0.002548	-0.014050	0.332140	0.159702	0.341852	-1.397228	-1.901167	1.765567	0.000000000	0.000000000	0.000000	0.000000	0.000000	0.000000	
44364	0.356186	-0.215301	9.788649	-0.015856	-0.010798	-0.016024	0.330045	0.157707	0.339822	-1.401395	-1.906127	1.759408	0.000000000	0.000000000	0.000000	0.000000	0.000000	0.000000	
44365	0.342090	-0.239218	9.796552	-0.006802	0.003455	-0.017574	0.331685	0.160616	0.340152	-1.401504	-1.904737	1.753282	0.000000000	0.000000000	0.000000	0.000000	0.000000	0.000000	
44366	0.301894	-0.253349	9.762230	-0.012665	0.001777	-0.014770	0.328748	0.157216	0.340738	-1.404163	-1.903681	1.748467	0.000000000	0.000000000	0.000000	0.000000	0.000000	0.000000	
44367	0.274772	-0.214639	9.773422	-0.004046	0.006058	-0.010043	0.331718	0.159644	0.341003	-1.403066	-1.900929	1.745906	0.000000000	0.000000000	0.000000	0.000000	0.000000	0.000000	
44368	0.243603	-0.204722	9.808384	-0.007489	0.003442	-0.012301	0.329718	0.157201	0.339806	-1.403292	-1.899049	1.743109	0.000000000	0.000000000	0.000000	0.000000	0.000000	0.000000	
44369	0.263673	-0.209703	9.803635	-0.002851	-0.009334	-0.011586	0.331121	0.159584	0.340397	-1.401579	-1.903606	1.739988	0.000000000	0.000000000	0.000000	0.000000	0.000000	0.000000	
44370	0.339217	-0.217566	9.786486	-0.015997	-0.001822	-0.004410	0.329954	0.157001	0.340776	-1.405994	-1.904146	1.740665	0.000000000	0.000000000	0.000000	0.000000	0.000000	0.000000	
44371	0.415009	-0.208597	9.771822	-0.005628	0.005202	-0.012024	0.329748	0.160945	0.341338	-1.405572	-1.901801	1.737165	0.000000000	0.000000000	0.000000	0.000000	0.000000	0.000000	
44372	0.437678	-0.163115	9.760173	-0.006883	-0.009172	-0.022008	0.330103	0.156314	0.341097	-1.405359	-1.906056	1.730124	0.000000000	0.000000000	0.000000	0.000000	0.000000	0.000000	
44373	0.454627	-0.163276	9.742872	-0.008358	-0.021583	-0.057204	0.329688	0.159612	0.341665	-1.405474	-1.917104	1.705362	0.000000000	0.000000000	0.000000	0.000000	0.000000	0.000000	
44374	0.452277	-0.196907	9.752258	-0.013366	-0.007012	-0.054367	0.329312	0.156630	0.341109	-1.407835	-1.920707	1.681497	0.000000000	0.000000000	0.000000	0.000000	0.000000	0.000000	
44375	0.364483	-0.239429	9.775079	-0.012744	-0.006221	-0.038104	0.331164	0.158869	0.341368	-1.410321	-1.924249	1.665677	0.000000000	0.000000000	0.000000	0.000000	0.000000	0.000000	
44376	0.293489	-0.243670	9.753876	0.000779	0.001652	-0.048919	0.329779	0.158700	0.341327	-1.406011	-1.923653	1.643145	0.000000000	0.000000000	0.000000	0.000000	0.000000	0.000000	
44377	0.128305	-0.251863	9.796079	-0.019168	0.016441	-0.021175	0.331701	0.159294	0.342611	-1.411830	-1.916090	1.635141	0.000000000	0.000000000	0.000000	0.000000	0.000000	0.000000	
44378	0.206263	-0.310189	9.822950	0.001709	0.017738	-0.021906	0.328715	0.158435	0.342659	-1.407504	-1.907499	1.626680	0.000000000	0.000000000	0.000000	0.000000	0.000000	0.000000	
44379	0.351246	-0.306590	9.821951	-0.000409	0.016789	-0.005971	0.330743	0.158975	0.342368	-1.404653	-1.899550	1.625935	0.000000000	0.000000000	0.000000	0.000000	0.000000	0.000000	
44380	0.378296	-0.287639	9.769477	-0.008252	0.008837	-0.004295	0.329964	0.157258	0.340896	-1.405368	-1.895002	1.628319	0.000000000	0.000000000	0.000000	0.000000	0.000000	0.000000	
44381	0.405542	-0.259029	9.755957	-0.021014	-0.007093	-0.009533	0.330909	0.160337	0.341390	-1.412328	-1.898537	1.626154	0.000000000	0.000000000	0.000000	0.000000	0.000000	0.000000	
44382	0.416176	-0.235030	9.793826	-0.005770	-0.016367	-0.033485	0.330664	0.157854	0.341223	-1.411404	-1.906361	1.612650	0.000000000	0.000000000	0.000000	0.000000	0.000000	0.000000	
44383	0.443246	-0.264097	9.804530	-0.000509	-0.016421	-0.046245	0.331231	0.160159	0.341840	-1.407995	-1.914846	1.593064	0.000000000	0.000000000	0.000000	0.000000	0.000000	0.000000	
44384	0.376547	-0.256343	9.791186	-0.010601	-0.007202	-0.034201	0.329930	0.157422	0.340353	-1.409360	-1.918304	1.579599	0.000000000	0.000000000	0.000000	0.000000	0.000000	0.000000	
44385	0.239766	-0.204721	9.781140	-0.010693	-0.009005	-0.034247	0.331246	0.160208	0.340911	-1.410987	-1.923087	1.565655	0.000000000	0.000000000	0.000000	0.000000	0.000000	0.000000	
44386	0.265837	-0.176112	9.757742	-0.004719	-0.019127	-0.028880	0.328585	0.157854	0.341346	-1.409631	-1.932174	1.553451	0.000000000	0.000000000	0.000000	0.000000	0.000000	0.000000	
44387	0.396386	-0.191657	9.730557	-0.004970	-0.012572	-0.065797	0.331458	0.159538	0.340842	-1.407972	-1.939025	1.524479	0.000000000	0.000000000	0.000000	0.000000	0.000000	0.000000	
44388	0.418157	-0.201371	9.806283	-0.003754	-0.007387	-0.031476	0.329233	0.157373	0.342120	-1.406106	-1.942539	1.513122	0.000000000	0.000000000	0.000000	0.000000	0.000000	0.000000	
44389	0.403680	-0.167623	9.775298	-0.014519	0.000261	-0.056384	0.330954	0.160648	0.340451	-1.409109	-1.943201	1.488494	0.000000000	0.000000000	0.000000	0.000000	0.000000	0.000000	
44390	0.437659	-0.165541	9.740709	-0.004735	-0.012568	-0.067562	0.328500	0.157832	0.341867	-1.407126	-1.949612	1.458362	0.000000000	0.000000000	0.000000	0.000000	0.000000	0.000000	
44391	0.479638	-0.245220	9.755677	-0.023827	-0.026544	-0.071839	0.330839	0.161172	0.340674	-1.414299	-1.963332	1.426671	0.000000000	0.000000000	0.000000	0.000000	0.000000	0.000000	
44392	0.433657	-0.280855	9.798423	-0.007600	-0.021489	-0.076853	0.328663	0.158002	0.340951	-1.413525	-1.974113	1.393006	0.000000000	0.000000000	0.000000	0.000000	0.000000	0.000000	
44393	0.327287	-0.291964	9.821353	0.001894	-0.001773	-0.086492	0.329582	0.160310	0.341084	-1.408183	-1.976204	1.354026	0.000000000	0.000000000	0.000000	0.000000	0.000000	0.000000	
44394	0.247101	-0.300944	9.794109	0.003663	-0.009113	-0.075431	0.329421	0.158823	0.341936	-1.402044	-1.981055	1.320707	0.000000000	0.000000000	0.000000	0.000000	0.000000	0.000000	
44395	0.264069	-0.281864	9.781700	0.001612	-0.014485	-0.075680	0.330394	0.160890	0.341559	-1.397047	-1.989013	1.287038	0.000000000	0.000000000	0.000000	0.000000	0.000000	0.000000	
44396	0.351042	-0.224876	9.787981	0.010180	-0.003810	-0.081772	0.329248	0.160657	0.339960	-1.387681	-1.991400	1.249173	0.000000000	0.000000000	0.000000	0.000000	0.000000	0.000000	
44397	0.375548	-0.215481	9.771654	0.015368	-0.031087	-0.077301	0.330921	0.161703	0.340524	-1.376073	-2.007298	1.214918	0.000000000	0.000000000	0.000000	0.000000	0.000000	0.000000	
44398	0.280559	-0.243578	9.740068	0.006195	-0.029021	-0.082173	0.328030	0.160479	0.342329	-1.368598	-2.021711	1.178367	0.000000000	0.000000000	0.000000	0.000000	0.000000	0.000000	
44399	0.222397	-0.286371	9.742338	0.008936	-0.027282	-0.081811	0.330479	0.162612	0.341347	-1.359983	-2.035762	1.141908	0.000000000	0.000000000	0.000000	0.000000	0.000000	0.000000	
44400	0.195211	-0.315004	9.736408	-0.001701	-0.026194	-0.068873	0.327909	0.159346	0.341444	-1.356486	-2.048666	1.113379	0.000000000	0.000000000	0.000000	0.000000	0.000000	0.000000	
44401	0.085474	-0.338124	9.744301	-0.002552	-0.030886	-0.036600	0.328881	0.162222	0.340758	-1.354179	-2.063770	1.098549	0.000000000	0.000000000	0.000000	0.000000	0.000000	0.000000	
44402	0.163391	-0.276192	9.802944	-0.003209	-0.036234	-0.047446	0.327375	0.159386	0.341371	-1.351759	-2.081222	1.078627	0.000000000	0.000000000	0.000000	0.000000	0.000000	0.000000	
44403	0.265998	-0.238562	9.816054	-0.009974	-0.045236	-0.026715	0.330718	0.163439	0.340406	-1.353179	-2.102961	1.068678	0.000000000	0.000000000	0.000000	0.000000	0.000000	0.000000	
44404	0.436319	-0.163049	9.808645	-0.020300	-0.048447	-0.052368	0.328172	0.159752	0.340927	-1.358824	-2.126299	1.046847	0.000000000	0.000000000	0.000000	0.000000	0.000000	0.000000	
44405	0.538014	-0.173527	9.797254	-0.010729	-0.055913	-0.052795	0.329888	0.162509	0.341539	-1.360086	-2.153515	1.024565	0.000000000	0.000000000	0.000000	0.000000	0.000000	0.000000	
44406	0.482565	-0.209150	9.780420	-0.012116	-0.059467	-0.057462	0.327924	0.160286	0.341131	-1.361716	-2.182173	0.999705	0.000000000	0.000000000	0.000000	0.000000	0.000000	0.000000	
44407	0.304246	-0.253346	9.781987	-0.019201	-0.044936	-0.038754	0.329620	0.163981	0.339039	-1.367251	-2.204002	0.984007	0.000000000	0.000000000	0.000000	0.000000	0.000000	0.000000	
44408	0.242866	-0.296148	9.752228	0.000286	-0.051821	-0.025273	0.328063	0.160877	0.339792	-1.363529	-2.228646	0.974531	0.000000000	0.000000000	0.000000	0.000000	0.000000	0.000000	
44409	0.284075	-0.354189	9.759830	-0.003021	-0.055377	-0.022077	0.329911	0.164350	0.339191	-1.361703	-2.255186	0.966916	0.000000000	0.000000000	0.000000	0.000000	0.000000	0.000000	
44410	0.312600	-0.303825	9.855951	0.002855	-0.021928	-0.046665	0.328235	0.161304	0.338997	-1.356331	-2.265802	0.947142	0.000000000	0.000000000	0.000000	0.000000	0.000000	0.000000	
44411	0.309546	-0.315734	9.933379	0.004254	-0.005833	-0.023183	0.330484	0.163939	0.338758	-1.351033	-2.268645	0.938436	0.000000000	0.000000000	0.000000	0.000000	0.000000	0.000000	
44412	0.347560	-0.361845	9.836003	-0.001172	-0.009468	0.003095	0.329569	0.161931	0.337946	-1.348517	-2.272751	0.942728	0.000000000	0.000000000	0.000000	0.000000	0.000000	0.000000	
44413	0.299433	-0.368796	9.713120	-0.013658	-0.023744	0.023950	0.330132	0.163045	0.338625	-1.352762	-2.283565	0.956741	0.000000000	0.000000000	0.000000	0.000000	0.000000	0.000000	
44414	0.178050	-0.276378	9.746436	-0.014763	-0.023602	0.004864	0.327429	0.160680	0.339321	-1.356776	-2.294398	0.961527	0.000000000	0.000000000	0.000000	0.000000	0.000000	0.000000	
44415	0.160697	-0.264120	9.826940	-0.028724	-0.010907	0.055047	0.329229	0.163377	0.338489	-1.368830	-2.298571	0.990249	0.000000000	0.000000000	0.000000	0.000000	0.000000	0.000000	
44416	0.242648	-0.233567	9.808224	-0.040205	-0.010863	0.094861	0.327729	0.160415	0.338976	-1.386713	-2.302288	1.037822	0.000000000	0.000000000	0.000000	0.000000	0.000000	0.000000	
44417	0.235397	-0.276865	9.739141	-0.024653	0.000415	0.111302	0.331197	0.162748	0.340373	-1.397906	-2.300283	1.093285	0.000000000	0.000000000	0.000000	0.000000	0.000000	0.000000	
44418	0.399627	-0.331146	9.725923	-0.035412	-0.014820	0.132465	0.329596	0.160277	0.339230	-1.414227	-2.305424	1.159336	0.000000000	0.000000000	0.000000	0.000000	0.000000	0.000000	
44419	0.433017	-0.350636	9.747172	-0.048066	-0.020051	0.151474	0.330912	0.161446	0.340404	-1.437454	-2.312696	1.234235	0.000000000	0.000000000	0.000000	0.000000	0.000000	0.000000	
44420	0.339985	-0.373827	9.815565	-0.063334	-0.021524	0.157493	0.329472	0.160626	0.340257	-1.467608	-2.320680	1.310012	0.000000000	0.000000000	0.000000	0.000000	0.000000	0.000000	
44421	0.137214	-0.352881	9.833564	-0.049513	-0.027463	0.187241	0.333776	0.161981	0.339162	-1.492317	-2.330868	1.402095	0.000000000	0.000000000	0.000000	0.000000	0.000000	0.000000	
44422	0.064533	-0.342662	9.829190	-0.047424	0.008497	0.213366	0.329870	0.157788	0.340989	-1.515958	-2.323754	1.507863	0.000000000	0.000000000	0.000000	0.000000	0.000000	0.000000	
44423	0.310070	-0.277432	9.787561	-0.067034	-0.012745	0.217155	0.332679	0.159372	0.339950	-1.549630	-2.326304	1.614054	0.000000000	0.000000000	0.000000	0.000000	0.000000	0.000000	
44424	0.489006	-0.216433	9.766637	-0.071292	-0.027923	0.202298	0.331454	0.156565	0.339671	-1.584479	-2.336603	1.713796	0.000000000	0.000000000	0.000000	0.000000	0.000000	0.000000	
44425	0.603279	-0.174106	9.766644	-0.073181	-0.036902	0.199410	0.333243	0.157978	0.340629	-1.620728	-2.350898	1.811839	0.000000000	0.000000000	0.000000	0.000000	0.000000	0.000000	
44426	0.603757	-0.193312	9.795867	-0.085548	-0.031958	0.178820	0.330733	0.155237	0.340706	-1.661969	-2.363314	1.899012	0.000000000	0.000000000	0.000000	0.000000	0.000000	0.000000	
44427	0.590860	-0.222104	9.755271	-0.076371	-0.035697	0.162107	0.334413	0.157627	0.340802	-1.698991	-2.377560	1.979244	0.000000000	0.000000000	0.000000	0.000000	0.000000	0.000000	
44428	0.541703	-0.260197	9.727074	-0.088522	-0.035253	0.137967	0.332582	0.154420	0.338871	-1.740886	-2.392014	2.048397	0.000000000	0.000000000	0.000000	0.000000	0.000000	0.000000	
44429	0.416950	-0.263970	9.723351	-0.106927	-0.034860	0.148027	0.335301	0.154573	0.340018	-1.792228	-2.406000	2.121915	0.000000000	0.000000000	0.000000	0.000000	0.000000	0.000000	
44430	0.430747	-0.264055	9.749430	-0.086478	-0.019056	0.142622	0.333491	0.153072	0.338266	-1.833260	-2.412542	2.193027	0.000000000	0.000000000	0.000000	0.000000	0.000000	0.000000	
44431	0.470137	-0.249954	9.752029	-0.093138	-0.024281	0.136357	0.335525	0.155269	0.339082	-1.877758	-2.421574	2.260829	0.000000000	0.000000000	0.000000	0.000000	0.000000	0.000000	
44432	0.510568	-0.279163	9.735248	-0.086764	-0.048090	0.160767	0.333561	0.151511	0.340214	-1.919342	-2.441579	2.340647	0.000000000	0.000000000	0.000000	0.000000	0.000000	0.000000	
44433	0.508119	-0.334440	9.739728	-0.082416	-0.039144	0.158621	0.335773	0.153035	0.338569	-1.959206	-2.457311	2.419340	0.000000000	0.000000000	0.000000	0.000000	0.000000	0.000000	
44434	0.513810	-0.452281	9.759755	-0.077835	-0.044543	0.135032	0.334137	0.151482	0.340026	-1.996046	-2.475936	2.485586	0.000000000	0.000000000	0.000000	0.000000	0.000000	0.000000	
44435	0.406880	-0.547583	9.746019	-0.067092	-0.041240	0.143671	0.336295	0.153412	0.340741	-2.028442	-2.492845	2.557202	0.000000000	0.000000000	0.000000	0.000000	0.000000	0.000000	
44436	0.312169	-0.479436	9.775402	-0.065129	-0.034023	0.138461	0.334419	0.149894	0.339749	-2.059319	-2.506315	2.626616	0.000000000	0.000000000	0.000000	0.000000	0.000000	0.000000	
44437	0.250814	-0.401895	9.852823	-0.070296	-0.025854	0.153867	0.337917	0.151682	0.341444	-2.093535	-2.515521	2.702856	0.000000000	0.000000000	0.000000	0.000000	0.000000	0.000000	
44438	0.335711	-0.316031	9.863742	-0.065423	-0.036086	0.181566	0.336916	0.147870	0.339920	-2.125488	-2.529139	2.794524	0.000000000	0.000000000	0.000000	0.000000	0.000000	0.000000	
44439	0.550472	-0.380410	9.798568	-0.076884	-0.035753	0.172869	0.338029	0.151584	0.340668	-2.163276	-2.542644	2.880028	0.000000000	0.000000000	0.000000	0.000000	0.000000	0.000000	
44440	0.752615	-0.394152	9.768337	-0.070796	-0.041119	0.137802	0.336792	0.147246	0.339405	-2.196913	-2.559347	2.947891	0.000000000	0.000000000	0.000000	0.000000	0.000000	0.000000	
44441	0.759360	-0.343695	9.786288	-0.073055	-0.044528	0.112322	0.339101	0.150488	0.340071	-2.231623	-2.578274	3.004665	0.000000000	0.000000000	0.000000	0.000000	0.000000	0.000000	
44442	0.633219	-0.325819	9.779984	-0.058070	-0.044948	0.121525	0.338150	0.146001	0.341242	-2.258882	-2.597031	3.066534	0.000000000	0.000000000	0.000000	0.000000	0.000000	0.000000	
44443	0.566520	-0.318065	9.766641	-0.057352	-0.033942	0.092760	0.338880	0.145886	0.340018	-2.285647	-2.611327	3.113788	0.000000000	0.000000000	0.000000	0.000000	0.000000	0.000000	
44444	0.556270	-0.315549	9.789661	-0.048500	-0.036955	0.106572	0.336707	0.145524	0.339617	-2.308038	-2.626500	3.166433	0.000000000	0.000000000	0.000000	0.000000	0.000000	0.000000	
44445	0.573435	-0.286809	9.816207	-0.050580	-0.022405	0.100801	0.339935	0.148566	0.340415	-2.331687	-2.635174	3.217316	0.000000000	0.000000000	0.000000	0.000000	0.000000	0.000000	
44446	0.645486	-0.239379	9.764634	-0.031678	-0.022741	0.079989	0.338282	0.144853	0.337871	-2.345468	-2.644045	3.259078	0.000000000	0.000000000	0.000000	0.000000	0.000000	0.000000	
44447	0.804113	-0.130166	9.704703	-0.021672	-0.025478	0.043593	0.340848	0.146957	0.342212	-2.353917	-2.655464	3.282703	0.000000000	0.000000000	0.000000	0.000000	0.000000	0.000000	
44448	0.982071	-0.059507	9.712854	-0.000097	-0.020269	-0.009245	0.338698	0.145037	0.338845	-2.350654	-2.664895	3.280782	0.000000000	0.000000000	0.000000	0.000000	0.000000	0.000000	
44449	1.003220	0.048491	9.691365	0.025378	-0.016940	-0.065184	0.340729	0.146125	0.340648	-2.333942	-2.674734	3.252287	0.000000000	0.000000000	0.000000	0.000000	0.000000	0.000000	
44450	0.991903	-0.009211	9.612017	0.040575	-0.017105	-0.099081	0.338680	0.146305	0.339837	-2.309249	-2.684392	3.207030	0.000000000	0.000000000	0.000000	0.000000	0.000000	0.000000	
44451	1.101956	-0.060655	9.582177	0.047967	-0.005959	-0.179047	0.341183	0.148281	0.339268	-2.278934	-2.691547	3.123935	0.000000000	0.000000000	0.000000	0.000000	0.000000	0.000000	
44452	1.079802	-0.086862	9.632833	0.075722	0.007252	-0.234702	0.337873	0.147216	0.338621	-2.234387	-2.692084	3.014534	0.000000000	0.000000000	0.000000	0.000000	0.000000	0.000000	
44453	0.883471	-0.325630	9.665903	0.077308	0.019093	-0.256113	0.340220	0.149060	0.340692	-2.188186	-2.688932	2.894165	0.000000000	0.000000000	0.000000	0.000000	0.000000	0.000000	
44454	0.456668	-0.608176	9.686606	0.060011	0.049316	-0.249665	0.336761	0.149492	0.339416	-2.150795	-2.669503	2.775821	0.000000000	0.000000000	0.000000	0.000000	0.000000	0.000000	
44455	0.223348	-0.627766	9.778496	0.044587	0.063256	-0.250086	0.338574	0.151211	0.339566	-2.120558	-2.644905	2.657559	0.000000000	0.000000000	0.000000	0.000000	0.000000	0.000000	
44456	-0.051829	-0.735975	9.867373	0.023524	0.035338	-0.182653	0.336473	0.150232	0.338278	-2.102158	-2.630847	2.572946	0.000000000	0.000000000	0.000000	0.000000	0.000000	0.000000	
44457	-0.085269	-0.740472	9.897161	0.003862	0.043736	-0.145812	0.337755	0.153182	0.338293	-2.093993	-2.613275	2.504852	0.000000000	0.000000000	0.000000	0.000000	0.000000	0.000000	
44458	0.117574	-0.650826	9.869589	0.022211	0.032190	-0.104560	0.333885	0.150825	0.340293	-2.077967	-2.599324	2.455794	0.000000000	0.000000000	0.000000	0.000000	0.000000	0.000000	
44459	0.285958	-0.510426	9.818238	0.016379	0.015915	-0.080081	0.335931	0.152688	0.339935	-2.065453	-2.593670	2.419588	0.000000000	0.000000000	0.000000	0.000000	0.000000	0.000000	
44460	0.467081	-0.362857	9.822028	0.036689	0.004780	-0.115925	0.335437	0.152438	0.340281	-2.042301	-2.592966	2.366543	0.000000000	0.000000000	0.000000	0.000000	0.000000	0.000000	
44461	0.588334	-0.347042	9.818025	0.038411	-0.007977	-0.106599	0.336164	0.153722	0.340044	-2.018710	-2.599178	2.318082	0.000000000	0.000000000	0.000000	0.000000	0.000000	0.000000	
44462	0.541123	-0.288962	9.799930	0.045993	-0.019048	-0.100132	0.334731	0.151968	0.340079	-1.991466	-2.609535	2.273922	0.000000000	0.000000000	0.000000	0.000000	0.000000	0.000000	
44463	0.484329	-0.305386	9.741602	0.039491	-0.015327	-0.090259	0.336176	0.155006	0.338254	-1.967670	-2.618974	2.233382	0.000000000	0.000000000	0.000000	0.000000	0.000000	0.000000	
44464	0.445082	-0.249740	9.756138	0.031060	-0.009683	-0.092362	0.334091	0.152541	0.337577	-1.947704	-2.624698	2.191837	0.000000000	0.000000000	0.000000	0.000000	0.000000	0.000000	
44465	0.510483	-0.240636	9.783932	0.044741	-0.021738	-0.098508	0.336182	0.155606	0.336896	-1.921148	-2.637303	2.147449	0.000000000	0.000000000	0.000000	0.000000	0.000000	0.000000	
44466	0.480174	-0.500067	9.779734	0.037720	-0.013318	-0.117434	0.334115	0.152929	0.337692	-1.897438	-2.645125	2.094473	0.000000000	0.000000000	0.000000	0.000000	0.000000	0.000000	
44467	0.539838	-0.572661	9.811555	0.034457	0.003009	-0.113445	0.335146	0.156112	0.338590	-1.875576	-2.646142	2.042557	0.000000000	0.000000000	0.000000	0.000000	0.000000	0.000000	
44468	0.400945	-0.715712	9.861792	0.024112	0.003074	-0.082462	0.333864	0.153163	0.338576	-1.859119	-2.645559	2.005947	0.000000000	0.000000000	0.000000	0.000000	0.000000	0.000000	
44469	0.141999	-0.744829	9.845819	0.020434	0.035513	-0.048134	0.336312	0.157078	0.338826	-1.845652	-2.629881	1.984739	0.000000000	0.000000000	0.000000	0.000000	0.000000	0.000000	
44470	0.062188	-0.602291	9.855306	0.035941	0.054864	-0.021020	0.332340	0.154102	0.340182	-1.824870	-2.603621	1.974993	0.000000000	0.000000000	0.000000	0.000000	0.000000	0.000000	
44471	0.191053	-0.536012	9.881524	0.032116	0.054614	0.036029	0.334419	0.156610	0.340060	-1.807816	-2.577301	1.993713	0.000000000	0.000000000	0.000000	0.000000	0.000000	0.000000	
44472	0.375568	-0.566374	9.907403	0.028264	0.033782	0.057266	0.333752	0.154151	0.339968	-1.792397	-2.559923	2.023681	0.000000000	0.000000000	0.000000	0.000000	0.000000	0.000000	
44473	0.573371	-0.539219	9.864512	0.034455	0.041784	0.054492	0.336119	0.155836	0.340060	-1.774773	-2.539472	2.051435	0.000000000	0.000000000	0.000000	0.000000	0.000000	0.000000	
44474	0.548564	-0.488544	9.841964	0.058849	0.051976	0.064920	0.332733	0.154842	0.338205	-1.744880	-2.513319	2.082914	0.000000000	0.000000000	0.000000	0.000000	0.000000	0.000000	
44475	0.440664	-0.413128	9.823463	0.062070	0.042782	0.077960	0.334861	0.155701	0.339237	-1.714630	-2.492110	2.121887	0.000000000	0.000000000	0.000000	0.000000	0.000000	0.000000	
44476	0.410042	-0.345562	9.812358	0.060481	0.044595	0.084001	0.332557	0.154032	0.338755	-1.684331	-2.469244	2.164396	0.000000000	0.000000000	0.000000	0.000000	0.000000	0.000000	
44477	0.459541	-0.302729	9.782231	0.067590	0.036177	0.102103	0.336016	0.156109	0.340032	-1.651927	-2.450888	2.215016	0.000000000	0.000000000	0.000000	0.000000	0.000000	0.000000	
44478	0.571002	-0.255586	9.767293	0.064717	0.044398	0.099872	0.333939	0.154710	0.339168	-1.619900	-2.427946	2.264338	0.000000000	0.000000000	0.000000	0.000000	0.000000	0.000000	
44479	0.687625	-0.179628	9.757915	0.058484	0.054598	0.082776	0.335743	0.155363	0.339504	-1.591349	-2.401247	2.305499	0.000000000	0.000000000	0.000000	0.000000	0.000000	0.000000	
44480	0.754008	-0.112817	9.793206	0.066286	0.046561	0.033522	0.333406	0.153776	0.337554	-1.557208	-2.378196	2.324151	0.000000000	0.000000000	0.000000	0.000000	0.000000	0.000000	
44481	0.862754	-0.123395	9.746228	0.075115	0.043061	-0.021891	0.335240	0.156556	0.340038	-1.518506	-2.358659	2.315494	0.000000000	0.000000000	0.000000	0.000000	0.000000	0.000000	
44482	0.804836	-0.183091	9.685268	0.076802	0.055729	-0.029833	0.333939	0.153736	0.337627	-1.478089	-2.332047	2.304008	0.000000000	0.000000000	0.000000	0.000000	0.000000	0.000000	
44483	0.480702	-0.293406	9.677917	0.085351	0.106344	-0.061393	0.335249	0.155922	0.339542	-1.433697	-2.282925	2.275747	0.000000000	0.000000000	0.000000	0.000000	0.000000	0.000000	
44484	0.360441	-0.275523	9.721007	0.090803	0.117077	-0.064342	0.333821	0.155742	0.339761	-1.385939	-2.227416	2.245241	0.000000000	0.000000000	0.000000	0.000000	0.000000	0.000000	
44485	0.207976	-0.245344	9.769744	0.084576	0.104522	-0.056156	0.334121	0.157984	0.339418	-1.342071	-2.178970	2.219580	0.000000000	0.000000000	0.000000	0.000000	0.000000	0.000000	
44486	0.228377	-0.180539	9.818639	0.086639	0.098085	-0.046853	0.333273	0.155650	0.339693	-1.296678	-2.132288	2.199462	0.000000000	0.000000000	0.000000	0.000000	0.000000	0.000000	
44487	0.355243	-0.167160	9.827507	0.074563	0.081182	-0.043872	0.333291	0.157781	0.339319	-1.257810	-2.094742	2.179990	0.000000000	0.000000000	0.000000	0.000000	0.000000	0.000000	
44488	0.439553	-0.211164	9.808994	0.086220	0.075606	-0.066505	0.332376	0.155856	0.339431	-1.212318	-2.058961	2.150298	0.000000000	0.000000000	0.000000	0.000000	0.000000	0.000000	
44489	0.416306	-0.191826	9.728229	0.066541	0.079624	-0.052135	0.333970	0.158454	0.340700	-1.177149	-2.022247	2.126950	0.000000000	0.000000000	0.000000	0.000000	0.000000	0.000000	
44490	0.202677	-0.233400	9.662066	0.051997	0.063747	-0.057651	0.331297	0.157077	0.340153	-1.148187	-1.992004	2.100405	0.000000000	0.000000000	0.000000	0.000000	0.000000	0.000000	
44491	-0.036401	-0.269857	9.680232	0.060486	0.059869	-0.048418	0.333542	0.158439	0.339052	-1.116032	-1.964465	2.079056	0.000000000	0.000000000	0.000000	0.000000	0.000000	0.000000	
44492	-0.140125	-0.216030	9.737636	0.063842	0.059568	-0.012020	0.331345	0.157771	0.339460	-1.082184	-1.935770	2.075305	0.000000000	0.000000000	0.000000	0.000000	0.000000	0.000000	
44493	-0.102889	-0.225900	9.788575	0.038390	0.041888	0.024212	0.333043	0.159288	0.341064	-1.061783	-1.915813	2.088827	0.000000000	0.000000000	0.000000	0.000000	0.000000	0.000000	
44494	0.028529	-0.140445	9.781092	0.034526	0.038197	0.052490	0.330739	0.156811	0.340890	-1.042967	-1.896751	2.116689	0.000000000	0.000000000	0.000000	0.000000	0.000000	0.000000	
44495	0.164046	-0.069469	9.757086	0.018079	0.025961	0.049435	0.331703	0.159430	0.340084	-1.032596	-1.884018	2.142400	0.000000000	0.000000000	0.000000	0.000000	0.000000	0.000000	
44496	0.350567	0.013133	9.759046	0.016693	0.005225	0.044893	0.331806	0.158349	0.340419	-1.022174	-1.880773	2.165083	0.000000000	0.000000000	0.000000	0.000000	0.000000	0.000000	
44497	0.491943	-0.019304	9.757540	0.023613	0.006107	0.019788	0.332404	0.159382	0.342567	-1.008567	-1.877842	2.176804	0.000000000	0.000000000	0.000000	0.000000	0.000000	0.000000	
44498	0.545905	-0.067857	9.744887	0.015952	0.005412	0.016076	0.330015	0.155909	0.341372	-0.998046	-1.874759	2.188393	0.000000000	0.000000000	0.000000	0.000000	0.000000	0.000000	
44499	0.498888	-0.084298	9.743746	0.005601	0.008516	-0.006940	0.333085	0.158491	0.341111	-0.992546	-1.871037	2.187330	0.000000000	0.000000000	0.000000	0.000000	0.000000	0.000000	
44500	0.451553	-0.110353	9.742551	-0.006642	0.010677	-0.015815	0.329633	0.157905	0.339094	-0.992314	-1.865705	2.180133	0.000000000	0.000000000	0.000000	0.000000	0.000000	0.000000	
44501	0.348729	-0.085403	9.785438	-0.010427	0.012812	-0.055039	0.331634	0.158730	0.340907	-0.993662	-1.860377	2.156059	0.000000000	0.000000000	0.000000	0.000000	0.000000	0.000000	
44502	0.459984	0.118120	9.850943	0.020260	0.024033	-0.092333	0.330287	0.157299	0.339743	-0.979400	-1.849298	2.115708	0.000000000	0.000000000	0.000000	0.000000	0.000000	0.000000	
44503	0.703354	0.099207	9.804063	0.013264	0.008962	-0.113824	0.332518	0.158693	0.340495	-0.968338	-1.846450	2.063588	0.000000000	0.000000000	0.000000	0.000000	0.000000	0.000000	
44504	0.810780	0.018882	9.730070	0.024149	0.004522	-0.171631	0.329614	0.158200	0.338546	-0.951010	-1.845301	1.983932	0.000000000	0.000000000	0.000000	0.000000	0.000000	0.000000	
44505	0.723963	-0.083850	9.672672	0.006492	0.020472	-0.195708	0.329497	0.160205	0.340680	-0.941832	-1.837881	1.892619	0.000000000	0.000000000	0.000000	0.000000	0.000000	0.000000	
44506	0.458839	-0.170606	9.670431	0.009680	0.032924	-0.173798	0.329075	0.159256	0.339215	-0.931394	-1.823157	1.811831	0.000000000	0.000000000	0.000000	0.000000	0.000000	0.000000	
44507	0.254352	-0.281870	9.705064	0.022301	0.028148	-0.182853	0.330727	0.160297	0.339909	-0.914941	-1.811952	1.726605	0.000000000	0.000000000	0.000000	0.000000	0.000000	0.000000	
44508	0.160244	-0.333862	9.812198	0.009474	0.024796	-0.175580	0.329330	0.159488	0.339502	-0.904610	-1.801085	1.646202	0.000000000	0.000000000	0.000000	0.000000	0.000000	0.000000	
44509	0.268193	-0.310625	9.894071	0.027660	0.036078	-0.172255	0.329648	0.163217	0.340940	-0.885901	-1.785888	1.565987	0.000000000	0.000000000	0.000000	0.000000	0.000000	0.000000	
44510	0.364136	-0.220053	9.896673	0.031477	0.035911	-0.160049	0.327590	0.160633	0.340008	-0.865334	-1.769553	1.491144	0.000000000	0.000000000	0.000000	0.000000	0.000000	0.000000	
44511	0.478990	-0.182589	9.852967	0.034858	0.035902	-0.172169	0.328651	0.163996	0.339971	-0.843262	-1.754446	1.410987	0.000000000	0.000000000	0.000000	0.000000	0.000000	0.000000	
44512	0.483600	-0.211530	9.809735	0.046586	0.040989	-0.163405	0.327584	0.162458	0.340442	-0.815474	-1.735649	1.334816	0.000000000	0.000000000	0.000000	0.000000	0.000000	0.000000	
44513	0.256212	-0.264980	9.770993	0.044879	0.059983	-0.156594	0.329530	0.164167	0.340609	-0.788952	-1.708901	1.261957	0.000000000	0.000000000	0.000000	0.000000	0.000000	0.000000	
44514	-0.072218	-0.370475	9.741212	0.044263	0.053498	-0.127002	0.327769	0.163525	0.340012	-0.762850	-1.683826	1.203846	0.000000000	0.000000000	0.000000	0.000000	0.000000	0.000000	
44515	-0.206010	-0.316435	9.765601	0.025803	0.039334	-0.101589	0.328284	0.164588	0.339229	-0.746409	-1.666215	1.157407	0.000000000	0.000000000	0.000000	0.000000	0.000000	0.000000	
44516	-0.211689	-0.273045	9.820877	0.015787	0.042889	-0.050821	0.326132	0.164233	0.338698	-0.734999	-1.645698	1.134581	0.000000000	0.000000000	0.000000	0.000000	0.000000	0.000000	
44517	-0.109293	-0.230579	9.855857	0.016356	0.044454	-0.012970	0.326912	0.165223	0.341402	-0.724387	-1.624760	1.130438	0.000000000	0.000000000	0.000000	0.000000	0.000000	0.000000	
44518	0.122622	-0.242210	9.785639	0.012791	0.026504	-0.020492	0.325366	0.163484	0.341289	-0.714834	-1.611876	1.123536	0.000000000	0.000000000	0.000000	0.000000	0.000000	0.000000	
44519	0.227938	-0.247962	9.728500	-0.006227	0.023194	0.006639	0.327402	0.165090	0.340810	-0.715350	-1.600892	1.128891	0.000000000	0.000000000	0.000000	0.000000	0.000000	0.000000	
44520	0.046875	-0.169448	9.783389	-0.002015	0.023815	0.036829	0.325132	0.164958	0.341181	-0.713632	-1.588950	1.147086	0.000000000	0.000000000	0.000000	0.000000	0.000000	0.000000	
44521	0.015290	-0.173976	9.798821	-0.003854	0.031934	0.047317	0.329206	0.164044	0.340838	-0.713572	-1.573375	1.171812	0.000000000	0.000000000	0.000000	0.000000	0.000000	0.000000	
44522	0.083119	-0.213017	9.795242	-0.001818	0.031687	0.079996	0.326041	0.162636	0.339035	-0.712312	-1.557419	1.214914	0.000000000	0.000000000	0.000000	0.000000	0.000000	0.000000	
44523	0.101787	-0.357515	9.726893	-0.033362	0.022209	0.131562	0.327687	0.165420	0.339239	-0.727524	-1.545852	1.279931	0.000000000	0.000000000	0.000000	0.000000	0.000000	0.000000	
44524	-0.010694	-0.467217	9.695407	-0.047674	0.021293	0.192579	0.325614	0.161251	0.340775	-0.749587	-1.534148	1.374123	0.000000000	0.000000000	0.000000	0.000000	0.000000	0.000000	
44525	-0.152581	-0.437133	9.738193	-0.056982	0.023063	0.237133	0.328387	0.163590	0.340489	-0.777610	-1.521207	1.489542	0.000000000	0.000000000	0.000000	0.000000	0.000000	0.000000	
44526	-0.195639	-0.277958	9.847237	-0.066932	0.012187	0.281665	0.326566	0.161778	0.342067	-0.809958	-1.513169	1.624229	0.000000000	0.000000000	0.000000	0.000000	0.000000	0.000000	
44527	0.077072	-0.102234	9.908934	-0.047290	-0.017089	0.257548	0.329170	0.160591	0.341280	-0.833615	-1.518914	1.749653	0.000000000	0.000000000	0.000000	0.000000	0.000000	0.000000	
44528	0.528715	-0.000241	9.876561	-0.047226	-0.023241	0.227081	0.326624	0.158604	0.342109	-0.855883	-1.528053	1.862044	0.000000000	0.000000000	0.000000	0.000000	0.000000	0.000000	
44529	0.839018	0.290481	9.848337	-0.032452	-0.027684	0.153555	0.329618	0.159638	0.341256	-0.870950	-1.539807	1.937888	0.000000000	0.000000000	0.000000	0.000000	0.000000	0.000000	
44530	1.018034	0.538951	9.761997	0.000990	-0.031603	0.068155	0.328032	0.158106	0.339801	-0.868195	-1.554042	1.973570	0.000000000	0.000000000	0.000000	0.000000	0.000000	0.000000	
44531	1.418934	0.287740	9.574336	-0.010530	-0.035897	-0.073538	0.330540	0.159903	0.342558	-0.869474	-1.572020	1.941028	0.000000000	0.000000000	0.000000	0.000000	0.000000	0.000000	
44532	1.051643	0.004671	9.570994	-0.025336	-0.013820	-0.075683	0.328476	0.158252	0.341444	-0.877413	-1.578809	1.907830	0.000000000	0.000000000	0.000000	0.000000	0.000000	0.000000	
44533	0.276680	-0.089690	9.715454	-0.022633	0.041915	-0.032615	0.330325	0.160191	0.342382	-0.884908	-1.559614	1.894271	0.000000000	0.000000000	0.000000	0.000000	0.000000	0.000000	
44534	0.026906	-0.251118	9.707773	-0.007893	0.057809	-0.028916	0.327909	0.158455	0.340827	-0.885125	-1.531869	1.882328	0.000000000	0.000000000	0.000000	0.000000	0.000000	0.000000	
44535	0.147040	-0.261654	9.781425	-0.009770	0.037753	0.005159	0.329006	0.160421	0.342196	-0.887039	-1.514246	1.886836	0.000000000	0.000000000	0.000000	0.000000	0.000000	0.000000	
44536	0.235514	-0.245385	9.936210	-0.004931	0.035875	-0.004937	0.327575	0.158076	0.340936	-0.886154	-1.496795	1.886957	0.000000000	0.000000000	0.000000	0.000000	0.000000	0.000000	
44537	0.263221	-0.255221	9.947021	0.008694	0.053709	-0.019372	0.329625	0.160568	0.343596	-0.879004	-1.471715	1.879634	0.000000000	0.000000000	0.000000	0.000000	0.000000	0.000000	
44538	0.356046	-0.234496	9.822657	0.018011	0.056209	-0.020814	0.328055	0.157715	0.344600	-0.866970	-1.444673	1.872666	0.000000000	0.000000000	0.000000	0.000000	0.000000	0.000000	
44539	0.252758	-0.204835	9.775497	0.004779	0.055854	-0.057718	0.327885	0.160658	0.341637	-0.861280	-1.418868	1.847024	0.000000000	0.000000000	0.000000	0.000000	0.000000	0.000000	
44540	0.163895	-0.199279	9.781219	0.008639	0.045769	-0.049957	0.327842	0.159029	0.342513	-0.853388	-1.397015	1.824582	0.000000000	0.000000000	0.000000	0.000000	0.000000	0.000000	
44541	0.114511	-0.167598	9.792001	0.018913	0.046231	-0.018004	0.328752	0.160271	0.342833	-0.841448	-1.375434	1.817979	0.000000000	0.000000000	0.000000	0.000000	0.000000	0.000000	
44542	0.139354	-0.146162	9.795191	0.004617	0.033752	0.010704	0.328067	0.158998	0.342810	-0.836185	-1.358888	1.825713	0.000000000	0.000000000	0.000000	0.000000	0.000000	0.000000	
44543	0.168943	-0.127168	9.798983	-0.004180	0.034017	0.002313	0.329561	0.161195	0.341830	-0.835494	-1.342929	1.828900	0.000000000	0.000000000	0.000000	0.000000	0.000000	0.000000	
44544	0.261359	-0.036601	9.771948	0.007307	0.021059	0.005745	0.327754	0.160077	0.340324	-0.828890	-1.332477	1.832897	0.000000000	0.000000000	0.000000	0.000000	0.000000	0.000000	
44545	0.426456	0.043747	9.749288	0.016008	0.003040	-0.040616	0.329876	0.161870	0.341173	-0.817979	-1.331673	1.815799	0.000000000	0.000000000	0.000000	0.000000	0.000000	0.000000	
44546	0.522964	0.076586	9.732428	0.027872	-0.013273	-0.082960	0.327781	0.159148	0.340376	-0.800574	-1.338212	1.780197	0.000000000	0.000000000	0.000000	0.000000	0.000000	0.000000	
44547	0.486915	0.012005	9.766670	0.015054	0.012366	-0.084846	0.329333	0.160926	0.342212	-0.789491	-1.333423	1.741918	0.000000000	0.000000000	0.000000	0.000000	0.000000	0.000000	
44548	0.291909	-0.046508	9.741773	0.016492	0.026833	-0.090162	0.327518	0.159633	0.341510	-0.777439	-1.320845	1.701302	0.000000000	0.000000000	0.000000	0.000000	0.000000	0.000000	
44549	0.146651	-0.078985	9.718376	0.003134	0.025366	-0.091992	0.328264	0.162404	0.343055	-0.771926	-1.309863	1.659526	0.000000000	0.000000000	0.000000	0.000000	0.000000	0.000000	
44550	0.216152	-0.117990	9.758790	-0.013318	0.036617	-0.092471	0.325775	0.160478	0.342694	-0.774099	-1.292622	1.616590	0.000000000	0.000000000	0.000000	0.000000	0.000000	0.000000	
44551	0.274802	-0.118412	9.817332	-0.002349	0.021755	-0.071986	0.327512	0.162431	0.343485	-0.771427	-1.283236	1.584393	0.000000000	0.000000000	0.000000	0.000000	0.000000	0.000000	
44552	0.299646	-0.113791	9.835094	-0.007824	0.023770	-0.084429	0.326117	0.161840	0.341474	-0.771081	-1.272075	1.545862	0.000000000	0.000000000	0.000000	0.000000	0.000000	0.000000	
44553	0.361013	-0.114346	9.796692	-0.011605	0.014837	-0.086677	0.329439	0.162653	0.341871	-0.772668	-1.266150	1.506696	0.000000000	0.000000000	0.000000	0.000000	0.000000	0.000000	
44554	0.428063	-0.124554	9.768729	0.015020	0.007118	-0.114470	0.325866	0.162074	0.342357	-0.761110	-1.263129	1.454778	0.000000000	0.000000000	0.000000	0.000000	0.000000	0.000000	
44555	0.373043	-0.085561	9.825016	0.008406	0.001810	-0.107261	0.326612	0.163872	0.342362	-0.752909	-1.263657	1.405869	0.000000000	0.000000000	0.000000	0.000000	0.000000	0.000000	
44556	0.296687	-0.003168	9.829998	0.016203	0.012637	-0.135085	0.325069	0.161625	0.341878	-0.740572	-1.258111	1.344652	0.000000000	0.000000000	0.000000	0.000000	0.000000	0.000000	
44557	0.292648	0.011289	9.827071	0.032890	0.021353	-0.149062	0.325984	0.165249	0.342074	-0.720153	-1.249578	1.275662	0.000000000	0.000000000	0.000000	0.000000	0.000000	0.000000	
44558	0.423348	-0.025884	9.812039	0.045223	0.037561	-0.188816	0.324175	0.163186	0.343402	-0.693423	-1.232405	1.187212	0.000000000	0.000000000	0.000000	0.000000	0.000000	0.000000	
44559	0.450193	-0.076658	9.761880	0.049016	0.037521	-0.197276	0.326242	0.165863	0.342606	-0.664794	-1.216504	1.095118	0.000000000	0.000000000	0.000000	0.000000	0.000000	0.000000	
44560	0.348299	-0.143205	9.697745	0.051785	0.039307	-0.204113	0.323947	0.164287	0.340396	-0.634829	-1.198493	1.000492	0.000000000	0.000000000	0.000000	0.000000	0.000000	0.000000	
44561	0.183529	-0.187503	9.708334	0.040332	0.059609	-0.225601	0.325008	0.168624	0.341900	-0.610162	-1.172126	0.894778	0.000000000	0.000000000	0.000000	0.000000	0.000000	0.000000	
44562	0.124848	-0.259084	9.764009	0.034095	0.047051	-0.217367	0.322599	0.163693	0.343300	-0.588591	-1.150400	0.794759	0.000000000	0.000000000	0.000000	0.000000	0.000000	0.000000	
44563	0.072266	-0.292244	9.820512	0.028416	0.066975	-0.200272	0.323854	0.166763	0.343570	-0.570062	-1.120225	0.701127	0.000000000	0.000000000	0.000000	0.000000	0.000000	0.000000	
44564	0.015715	-0.284534	9.842510	0.020708	0.052585	-0.181460	0.321456	0.166433	0.342873	-0.555309	-1.095623	0.615223	0.000000000	0.000000000	0.000000	0.000000	0.000000	0.000000	
44565	-0.062103	-0.375265	9.832486	0.012891	0.024583	-0.153564	0.323278	0.168326	0.342218	-0.544851	-1.085259	0.544105	0.000000000	0.000000000	0.000000	0.000000	0.000000	0.000000	
44566	-0.073831	-0.312681	9.806753	0.010446	0.037284	-0.150399	0.321389	0.167568	0.341478	-0.535324	-1.067790	0.474689	0.000000000	0.000000000	0.000000	0.000000	0.000000	0.000000	
44567	-0.138646	-0.326541	9.830105	0.002074	0.025462	-0.104709	0.321287	0.171404	0.343916	-0.530650	-1.056551	0.426897	0.000000000	0.000000000	0.000000	0.000000	0.000000	0.000000	
44568	-0.190644	-0.280384	9.864895	0.007981	0.026937	-0.073359	0.320656	0.168917	0.341841	-0.523007	-1.043667	0.393255	0.000000000	0.000000000	0.000000	0.000000	0.000000	0.000000	
44569	-0.108552	-0.264264	9.841313	0.011877	0.012136	-0.033157	0.322133	0.170930	0.344318	-0.514412	-1.038228	0.379686	0.000000000	0.000000000	0.000000	0.000000	0.000000	0.000000	
44570	0.051561	-0.188683	9.818012	0.010380	0.007717	-0.044115	0.319807	0.169091	0.342117	-0.505885	-1.034387	0.360777	0.000000000	0.000000000	0.000000	0.000000	0.000000	0.000000	
44571	0.288764	-0.137806	9.780168	0.011811	-0.011318	-0.041973	0.322554	0.170824	0.343318	-0.497292	-1.040165	0.343099	0.000000000	0.000000000	0.000000	0.000000	0.000000	0.000000	
44572	0.276015	-0.079929	9.836995	-0.009300	-0.006437	-0.016110	0.320171	0.168925	0.342307	-0.498404	-1.042962	0.338463	0.000000000	0.000000000	0.000000	0.000000	0.000000	0.000000	
44573	0.206869	-0.026457	9.835561	0.000670	0.017553	0.013847	0.322226	0.170154	0.341453	-0.495579	-1.034759	0.347321	0.000000000	0.000000000	0.000000	0.000000	0.000000	0.000000	
44574	0.263710	-0.002969	9.762563	-0.004424	0.015975	-0.003024	0.319526	0.168171	0.342394	-0.494475	-1.026801	0.348709	0.000000000	0.000000000	0.000000	0.000000	0.000000	0.000000	
44575	0.348470	-0.061412	9.736791	0.001744	0.026765	-0.018406	0.320914	0.171231	0.342682	-0.490815	-1.014415	0.342129	0.000000000	0.000000000	0.000000	0.000000	0.000000	0.000000	
44576	0.344062	-0.080556	9.784849	0.001841	0.028567	-0.018396	0.319789	0.168660	0.342801	-0.486589	-1.000507	0.335623	0.000000000	0.000000000	0.000000	0.000000	0.000000	0.000000	
44577	0.097076	-0.073671	9.799634	0.001290	0.046598	-0.006943	0.322023	0.170437	0.343799	-0.483229	-0.978628	0.334439	0.000000000	0.000000000	0.000000	0.000000	0.000000	0.000000	
44578	0.061281	-0.162350	9.787664	-0.007911	0.057638	-0.001051	0.320114	0.167165	0.343187	-0.483803	-0.950770	0.338053	0.000000000	0.000000000	0.000000	0.000000	0.000000	0.000000	
44579	0.178849	-0.184975	9.783141	0.003526	0.044758	-0.011077	0.319777	0.169720	0.342744	-0.479400	-0.929744	0.334903	0.000000000	0.000000000	0.000000	0.000000	0.000000	0.000000	
44580	0.232930	-0.142092	9.831429	0.015197	0.042704	-0.018467	0.317735	0.168240	0.343347	-0.468806	-0.909085	0.326374	0.000000000	0.000000000	0.000000	0.000000	0.000000	0.000000	
44581	0.230253	-0.093965	9.845746	0.012666	0.042897	-0.040410	0.321202	0.170408	0.342896	-0.459838	-0.889102	0.309232	0.000000000	0.000000000	0.000000	0.000000	0.000000	0.000000	
44582	0.242111	-0.113344	9.805882	0.009570	0.037628	-0.053384	0.319635	0.169555	0.343529	-0.451681	-0.870997	0.286367	0.000000000	0.000000000	0.000000	0.000000	0.000000	0.000000	
44583	0.199512	-0.117834	9.773698	0.019876	0.042892	-0.068213	0.321618	0.171483	0.344486	-0.439099	-0.851153	0.255958	0.000000000	0.000000000	0.000000	0.000000	0.000000	0.000000	
44584	0.083976	-0.054378	9.754211	0.024139	0.038229	-0.061353	0.318698	0.170050	0.342849	-0.423944	-0.832780	0.228725	0.000000000	0.000000000	0.000000	0.000000	0.000000	0.000000	
44585	-0.009819	-0.063233	9.737396	0.032016	0.049631	-0.034290	0.321545	0.170401	0.345064	-0.405799	-0.809500	0.214498	0.000000000	0.000000000	0.000000	0.000000	0.000000	0.000000	
44586	-0.044136	-0.077356	9.752468	0.016056	0.048022	-0.002278	0.319499	0.169182	0.343266	-0.394918	-0.786240	0.217484	0.000000000	0.000000000	0.000000	0.000000	0.000000	0.000000	
44587	-0.058771	-0.082045	9.750599	0.009856	0.027351	0.002399	0.319938	0.170563	0.344047	-0.387602	-0.773332	0.220854	0.000000000	0.000000000	0.000000	0.000000	0.000000	0.000000	
44588	0.036561	-0.082837	9.753003	0.000065	0.035670	0.011829	0.319060	0.167158	0.344640	-0.384446	-0.755924	0.230803	0.000000000	0.000000000	0.000000	0.000000	0.000000	0.000000	
44589	0.148085	-0.102975	9.776901	-0.014418	0.008876	0.015450	0.319890	0.171568	0.345049	-0.388812	-0.751761	0.240464	0.000000000	0.000000000	0.000000	0.000000	0.000000	0.000000	
44590	0.094566	-0.112111	9.808992	-0.008010	-0.003946	0.016394	0.317947	0.169269	0.343587	-0.389539	-0.753252	0.248009	0.000000000	0.000000000	0.000000	0.000000	0.000000	0.000000	
44591	0.067126	-0.083016	9.820132	-0.009246	0.010541	0.017923	0.320566	0.170885	0.344644	-0.391463	-0.748245	0.258844	0.000000000	0.000000000	0.000000	0.000000	0.000000	0.000000	
44592	0.071596	-0.114338	9.796337	-0.004066	0.002123	0.043868	0.317905	0.168449	0.344155	-0.390478	-0.746749	0.282869	0.000000000	0.000000000	0.000000	0.000000	0.000000	0.000000	
44593	0.086452	-0.121678	9.793354	-0.013534	0.012255	0.051516	0.319827	0.169852	0.345131	-0.394683	-0.740772	0.309738	0.000000000	0.000000000	0.000000	0.000000	0.000000	0.000000	
44594	-0.028359	-0.178406	9.812717	-0.000112	0.010160	0.044355	0.317362	0.169122	0.344578	-0.391808	-0.735435	0.332075	0.000000000	0.000000000	0.000000	0.000000	0.000000	0.000000	
44595	-0.051063	-0.144560	9.807440	-0.009365	0.018576	0.035836	0.320260	0.169659	0.345729	-0.393977	-0.726369	0.351432	0.000000000	0.000000000	0.000000	0.000000	0.000000	0.000000	
44596	0.009980	-0.113800	9.817682	-0.017878	0.019501	0.067053	0.319320	0.167990	0.343570	-0.399714	-0.716497	0.387864	0.000000000	0.000000000	0.000000	0.000000	0.000000	0.000000	
44597	0.047065	-0.068414	9.827327	-0.013128	0.009391	0.074951	0.318665	0.170378	0.344154	-0.403912	-0.711611	0.425926	0.000000000	0.000000000	0.000000	0.000000	0.000000	0.000000	
44598	0.155945	-0.035680	9.809609	-0.031032	0.001675	0.077971	0.319662	0.168626	0.343582	-0.415989	-0.710205	0.464586	0.000000000	0.000000000	0.000000	0.000000	0.000000	0.000000	
44599	0.300342	-0.044139	9.772036	-0.013776	0.002244	0.063258	0.320823	0.169717	0.343943	-0.420394	-0.708832	0.497089	0.000000000	0.000000000	0.000000	0.000000	0.000000	0.000000	
44600	0.331707	-0.044396	9.776028	-0.011323	-0.002297	0.056431	0.319460	0.166319	0.345003	-0.422932	-0.709390	0.528345	0.000000000	0.000000000	0.000000	0.000000	0.000000	0.000000	
44601	0.266221	-0.014974	9.796918	-0.000706	0.006702	0.020028	0.321257	0.169524	0.344541	-0.420801	-0.706157	0.540194	0.000000000	0.000000000	0.000000	0.000000	0.000000	0.000000	
44602	0.246390	-0.002781	9.801706	-0.011844	0.003351	0.021224	0.319678	0.167140	0.344192	-0.423379	-0.704142	0.552031	0.000000000	0.000000000	0.000000	0.000000	0.000000	0.000000	
44603	0.210860	-0.021758	9.767972	-0.003994	0.004996	0.016881	0.322442	0.169304	0.344709	-0.422747	-0.701804	0.562385	0.000000000	0.000000000	0.000000	0.000000	0.000000	0.000000	
44604	0.161917	-0.014136	9.769050	-0.000008	0.015864	-0.002441	0.318226	0.168189	0.343680	-0.419534	-0.693897	0.561775	0.000000000	0.000000000	0.000000	0.000000	0.000000	0.000000	
44605	0.183987	0.016969	9.796222	0.001418	0.004126	-0.011170	0.320157	0.170658	0.344469	-0.416094	-0.692104	0.558737	0.000000000	0.000000000	0.000000	0.000000	0.000000	0.000000	
44606	0.203325	0.055292	9.808462	-0.000378	0.012287	-0.007873	0.319596	0.168309	0.344651	-0.413027	-0.685925	0.558178	0.000000000	0.000000000	0.000000	0.000000	0.000000	0.000000	
44607	0.246477	0.059687	9.760451	-0.001843	0.012423	-0.024257	0.320687	0.169345	0.343679	-0.410973	-0.680282	0.548864	0.000000000	0.000000000	0.000000	0.000000	0.000000	0.000000	
44608	0.404221	0.082395	9.741643	0.008469	-0.009335	-0.056870	0.318408	0.167338	0.344545	-0.403404	-0.684592	0.524876	0.000000000	0.000000000	0.000000	0.000000	0.000000	0.000000	
44609	0.452732	0.108452	9.752717	0.018774	-0.004937	-0.078874	0.320505	0.169469	0.344047	-0.391072	-0.687625	0.489548	0.000000000	0.000000000	0.000000	0.000000	0.000000	0.000000	
44610	0.430364	0.019715	9.788670	0.015573	-0.001070	-0.108088	0.318350	0.167922	0.343578	-0.379814	-0.688145	0.440596	0.000000000	0.000000000	0.000000	0.000000	0.000000	0.000000	
44611	0.271372	-0.079958	9.778030	0.016553	0.006086	-0.099012	0.320226	0.169740	0.344261	-0.368396	-0.686115	0.395621	0.000000000	0.000000000	0.000000	0.000000	0.000000	0.000000	
44612	-0.010859	-0.070366	9.800493	0.002974	0.019824	-0.072225	0.318231	0.170489	0.342632	-0.363363	-0.676531	0.361733	0.000000000	0.000000000	0.000000	0.000000	0.000000	0.000000	
44613	-0.015728	-0.034249	9.809649	0.019791	0.041088	-0.068280	0.321772	0.172288	0.344066	-0.350572	-0.657581	0.331325	0.000000000	0.000000000	0.000000	0.000000	0.000000	0.000000	
44614	0.165209	0.046023	9.835218	0.018453	0.021377	-0.093505	0.317134	0.171196	0.343113	-0.338048	-0.647305	0.288526	0.000000000	0.000000000	0.000000	0.000000	0.000000	0.000000	
44615	0.323509	-0.032252	9.823645	0.024352	0.005100	-0.117729	0.319890	0.173186	0.344434	-0.322774	-0.645739	0.234617	0.000000000	0.000000000	0.000000	0.000000	0.000000	0.000000	
44616	0.258813	-0.130337	9.786095	0.014499	-0.006338	-0.129780	0.316983	0.171666	0.344395	-0.311948	-0.648773	0.175499	0.000000000	0.000000000	0.000000	0.000000	0.000000	0.000000	
44617	-0.025620	-0.125561	9.786381	0.001735	0.031771	-0.099434	0.318835	0.173013	0.344038	-0.307621	-0.634397	0.130258	0.000000000	0.000000000	0.000000	0.000000	0.000000	0.000000	
44618	-0.188952	-0.167522	9.748510	0.011136	0.023282	-0.078344	0.316631	0.171498	0.343031	-0.298688	-0.623143	0.095971	0.000000000	0.000000000	0.000000	0.000000	0.000000	0.000000	
44619	-0.170844	-0.203737	9.750768	0.002784	-0.000920	-0.079317	0.318008	0.173193	0.344185	-0.294069	-0.624103	0.060414	0.000000000	0.000000000	0.000000	0.000000	0.000000	0.000000	
44620	-0.071557	-0.197273	9.819355	-0.006852	0.002806	-0.059043	0.316868	0.171216	0.343077	-0.293829	-0.622572	0.035602	0.000000000	0.000000000	0.000000	0.000000	0.000000	0.000000	
44621	-0.041462	-0.168625	9.859708	0.002866	0.001696	-0.064908	0.317535	0.173757	0.344093	-0.289333	-0.622122	0.006916	0.000000000	0.000000000	0.000000	0.000000	0.000000	0.000000	
44622	-0.029039	-0.144743	9.807811	0.002972	-0.011091	-0.043239	0.316965	0.171152	0.344154	-0.284484	-0.627185	-0.010675	0.000000000	0.000000000	0.000000	0.000000	0.000000	0.000000	
44623	0.002500	-0.154688	9.751005	-0.003177	-0.014661	-0.025163	0.318014	0.173958	0.344676	-0.283141	-0.634355	-0.020346	0.000000000	0.000000000	0.000000	0.000000	0.000000	0.000000	
44624	0.016180	-0.178845	9.752715	-0.005509	-0.005610	-0.017432	0.316980	0.172009	0.342917	-0.282475	-0.636740	-0.026877	0.000000000	0.000000000	0.000000	0.000000	0.000000	0.000000	
44625	-0.066378	-0.115587	9.800664	-0.012142	-0.009113	-0.009351	0.317341	0.173324	0.345018	-0.285558	-0.641123	-0.029013	0.000000000	0.000000000	0.000000	0.000000	0.000000	0.000000	
44626	-0.054704	-0.101270	9.790008	-0.002452	-0.016698	0.009997	0.316995	0.172140	0.342912	-0.283578	-0.648737	-0.021897	0.000000000	0.000000000	0.000000	0.000000	0.000000	0.000000	
44627	0.078276	-0.114409	9.782594	-0.014087	-0.011944	0.018310	0.317932	0.173427	0.344826	-0.287772	-0.654332	-0.010821	0.000000000	0.000000000	0.000000	0.000000	0.000000	0.000000	
44628	0.189677	-0.084059	9.801678	-0.020764	-0.015368	0.012942	0.317544	0.172397	0.344829	-0.294553	-0.661303	-0.002313	0.000000000	0.000000000	0.000000	0.000000	0.000000	0.000000	
44629	0.230678	-0.036270	9.838578	-0.016102	-0.019126	0.017194	0.318630	0.173723	0.345831	-0.299705	-0.670392	0.008252	0.000000000	0.000000000	0.000000	0.000000	0.000000	0.000000	
44630	0.277251	-0.063136	9.812852	-0.014485	-0.018230	0.012029	0.316798	0.172051	0.342360	-0.303486	-0.678730	0.016231	0.000000000	0.000000000	0.000000	0.000000	0.000000	0.000000	
44631	0.298328	-0.065730	9.800938	-0.009315	-0.023737	0.004676	0.318738	0.173160	0.343885	-0.305329	-0.690165	0.020835	0.000000000	0.000000000	0.000000	0.000000	0.000000	0.000000	
44632	0.285937	-0.084866	9.796904	0.016659	-0.007937	-0.022463	0.316871	0.170790	0.343630	-0.294043	-0.693676	0.013977	0.000000000	0.000000000	0.000000	0.000000	0.000000	0.000000	
44633	0.163181	-0.136733	9.803101	0.009229	0.006584	-0.001090	0.319720	0.172250	0.344858	-0.287032	-0.690716	0.015755	0.000000000	0.000000000	0.000000	0.000000	0.000000	0.000000	
44634	0.062574	-0.138278	9.821912	0.015617	0.019060	0.003281	0.317153	0.171710	0.343354	-0.276390	-0.681273	0.019156	0.000000000	0.000000000	0.000000	0.000000	0.000000	0.000000	
44635	0.022504	-0.135531	9.828977	0.012878	0.010023	0.013746	0.318968	0.173730	0.342824	-0.267772	-0.676577	0.028010	0.000000000	0.000000000	0.000000	0.000000	0.000000	0.000000	
44636	0.055752	-0.106959	9.825950	-0.001123	0.012106	0.025318	0.317353	0.170400	0.342918	-0.265247	-0.670407	0.044006	0.000000000	0.000000000	0.000000	0.000000	0.000000	0.000000	
44637	0.122131	-0.107514	9.824669	0.007085	0.006456	0.029181	0.318941	0.171424	0.344003	-0.259512	-0.667357	0.060238	0.000000000	0.000000000	0.000000	0.000000	0.000000	0.000000	
44638	0.174326	-0.110382	9.799689	0.001273	0.017486	0.022937	0.318186	0.170986	0.343263	-0.255827	-0.658625	0.073488	0.000000000	0.000000000	0.000000	0.000000	0.000000	0.000000	
44639	0.168155	-0.107957	9.772152	0.007660	0.002822	0.030187	0.318456	0.172157	0.343237	-0.249855	-0.657344	0.090210	0.000000000	0.000000000	0.000000	0.000000	0.000000	0.000000	
44640	0.091108	-0.102517	9.762353	0.007992	0.009021	0.050860	0.317992	0.171362	0.343881	-0.243112	-0.652599	0.116298	0.000000000	0.000000000	0.000000	0.000000	0.000000	0.000000	
44641	-0.036933	-0.149526	9.772748	-0.004256	0.003024	0.045621	0.319887	0.171994	0.344496	-0.242960	-0.651126	0.140388	0.000000000	0.000000000	0.000000	0.000000	0.000000	0.000000	
44642	-0.071708	-0.158831	9.792632	0.001695	0.010036	0.058075	0.318004	0.171110	0.343630	-0.239260	-0.645884	0.170543	0.000000000	0.000000000	0.000000	0.000000	0.000000	0.000000	
44643	-0.095321	-0.139358	9.828568	0.013115	0.009536	0.094697	0.319296	0.171165	0.345921	-0.231136	-0.641066	0.218050	0.000000000	0.000000000	0.000000	0.000000	0.000000	0.000000	
44644	-0.049927	-0.024301	9.849091	0.002438	0.000700	0.104069	0.317326	0.169712	0.343481	-0.227323	-0.640201	0.270690	0.000000000	0.000000000	0.000000	0.000000	0.000000	0.000000	
44645	0.148800	0.161578	9.840578	0.013405	-0.007597	0.085815	0.320406	0.170289	0.346113	-0.218924	-0.643543	0.313986	0.000000000	0.000000000	0.000000	0.000000	0.000000	0.000000	
44646	0.531037	0.206411	9.779839	0.018980	-0.029947	0.020223	0.318787	0.169811	0.344730	-0.206768	-0.657474	0.326665	0.000000000	0.000000000	0.000000	0.000000	0.000000	0.000000	
44647	0.749439	0.115556	9.717525	0.004520	-0.036482	-0.037394	0.318702	0.171406	0.344636	-0.201798	-0.675196	0.311187	0.000000000	0.000000000	0.000000	0.000000	0.000000	0.000000	
44648	0.494489	0.091245	9.728822	0.005388	-0.022029	-0.038310	0.317580	0.169943	0.343768	-0.195806	-0.685446	0.294857	0.000000000	0.000000000	0.000000	0.000000	0.000000	0.000000	
44649	0.078843	0.063476	9.748848	0.006931	0.014088	-0.035702	0.319420	0.171625	0.344586	-0.189602	-0.679128	0.280106	0.000000000	0.000000000	0.000000	0.000000	0.000000	0.000000	
44650	-0.059045	-0.009929	9.733633	0.001596	0.019554	-0.020282	0.316677	0.171892	0.343016	-0.185522	-0.669492	0.270709	0.000000000	0.000000000	0.000000	0.000000	0.000000	0.000000	
44651	-0.006893	-0.010348	9.747567	0.000731	-0.002196	-0.008563	0.319072	0.171922	0.344392	-0.182410	-0.670792	0.268938	0.000000000	0.000000000	0.000000	0.000000	0.000000	0.000000	
44652	0.139101	0.012561	9.819690	0.005506	-0.002308	-0.010581	0.318383	0.169293	0.342582	-0.176519	-0.671580	0.270071	0.000000000	0.000000000	0.000000	0.000000	0.000000	0.000000	
44653	0.264017	0.071692	9.874583	0.018892	-0.009697	-0.040178	0.319575	0.172429	0.344167	-0.164499	-0.676557	0.253215	0.000000000	0.000000000	0.000000	0.000000	0.000000	0.000000	
44654	0.462802	0.038745	9.846333	0.034385	-0.007976	-0.089294	0.316916	0.170293	0.342999	-0.144374	-0.680150	0.211884	0.000000000	0.000000000	0.000000	0.000000	0.000000	0.000000	
44655	0.442196	-0.062155	9.770610	0.020986	-0.008500	-0.097390	0.319184	0.172715	0.344233	-0.131009	-0.684837	0.167713	0.000000000	0.000000000	0.000000	0.000000	0.000000	0.000000	
44656	0.140866	-0.100490	9.795444	0.018805	0.012284	-0.086173	0.316965	0.172686	0.342614	-0.118338	-0.678733	0.127485	0.000000000	0.000000000	0.000000	0.000000	0.000000	0.000000	
44657	-0.140784	-0.095761	9.774194	0.024425	0.021018	-0.056746	0.318714	0.172772	0.343770	-0.103611	-0.669174	0.102690	0.000000000	0.000000000	0.000000	0.000000	0.000000	0.000000	
44658	-0.220298	-0.164838	9.763982	0.013126	0.041116	-0.044914	0.316874	0.170282	0.343259	-0.093893	-0.649253	0.086630	0.000000000	0.000000000	0.000000	0.000000	0.000000	0.000000	
44659	-0.111328	-0.187338	9.807010	0.021464	0.032677	-0.029306	0.318698	0.172558	0.342850	-0.080845	-0.633892	0.074927	0.000000000	0.000000000	0.000000	0.000000	0.000000	0.000000	
44660	-0.072069	-0.165998	9.831492	0.015015	0.020976	-0.012121	0.318119	0.171313	0.342176	-0.070407	-0.623558	0.071756	0.000000000	0.000000000	0.000000	0.000000	0.000000	0.000000	
44661	-0.022790	-0.111135	9.806218	0.030919	0.004257	-0.002669	0.319180	0.173059	0.342755	-0.053065	-0.621631	0.072792	0.000000000	0.000000000	0.000000	0.000000	0.000000	0.000000	
44662	-0.017234	-0.120851	9.760699	0.024534	0.007979	0.006333	0.317013	0.171846	0.343461	-0.038178	-0.617493	0.077346	0.000000000	0.000000000	0.000000	0.000000	0.000000	0.000000	
44663	-0.042580	-0.101391	9.772093	0.015739	0.011647	0.033883	0.318090	0.173806	0.344959	-0.028334	-0.611927	0.095831	0.000000000	0.000000000	0.000000	0.000000	0.000000	0.000000	
44664	-0.106485	-0.134508	9.783373	0.000985	0.011826	0.064248	0.316031	0.171947	0.342795	-0.024983	-0.605941	0.128099	0.000000000	0.000000000	0.000000	0.000000	0.000000	0.000000	
44665	-0.130318	-0.086191	9.809589	0.006321	0.006115	0.090173	0.318865	0.171576	0.343720	-0.019979	-0.602848	0.173460	0.000000000	0.000000000	0.000000	0.000000	0.000000	0.000000	
44666	-0.081747	-0.043342	9.786641	-0.011344	-0.000734	0.098600	0.317498	0.171756	0.342070	-0.022684	-0.602857	0.223477	0.000000000	0.000000000	0.000000	0.000000	0.000000	0.000000	
44667	-0.024268	-0.051068	9.757463	-0.023496	0.002126	0.123922	0.320095	0.172394	0.341717	-0.032103	-0.601545	0.284950	0.000000000	0.000000000	0.000000	0.000000	0.000000	0.000000	
44668	-0.070827	-0.173320	9.744080	-0.041060	0.006838	0.163797	0.318543	0.171507	0.340497	-0.049320	-0.597899	0.365372	0.000000000	0.000000000	0.000000	0.000000	0.000000	0.000000	
44669	-0.135671	-0.165598	9.716378	-0.042791	0.010330	0.192300	0.319568	0.171664	0.343675	-0.068383	-0.592456	0.459487	0.000000000	0.000000000	0.000000	0.000000	0.000000	0.000000	
44670	-0.230347	-0.176778	9.762687	-0.064060	-0.003815	0.225454	0.318771	0.171215	0.343196	-0.096878	-0.593795	0.568223	0.000000000	0.000000000	0.000000	0.000000	0.000000	0.000000	
44671	-0.265979	-0.210099	9.801888	-0.068863	-0.000229	0.249965	0.320963	0.172090	0.343837	-0.128783	-0.593005	0.689871	0.000000000	0.000000000	0.000000	0.000000	0.000000	0.000000	
44672	-0.170432	-0.165175	9.833567	-0.070551	-0.016545	0.263335	0.319593	0.168653	0.343173	-0.160572	-0.600258	0.819034	0.000000000	0.000000000	0.000000	0.000000	0.000000	0.000000	
44673	0.038908	-0.058718	9.836030	-0.062235	-0.016865	0.282468	0.321839	0.168562	0.344536	-0.189541	-0.607116	0.956223	0.000000000	0.000000000	0.000000	0.000000	0.000000	0.000000	
44674	0.211103	0.036004	9.819156	-0.077273	-0.022718	0.264279	0.320402	0.167960	0.342786	-0.224579	-0.617174	1.083631	0.000000000	0.000000000	0.000000	0.000000	0.000000	0.000000	
44675	0.287964	0.148333	9.785306	-0.084560	-0.041400	0.243599	0.323084	0.167976	0.344068	-0.263954	-0.635762	1.202322	0.000000000	0.000000000	0.000000	0.000000	0.000000	0.000000	
44676	0.323835	0.188865	9.746144	-0.097552	-0.033717	0.221993	0.321538	0.166072	0.342106	-0.308519	-0.650996	1.311195	0.000000000	0.000000000	0.000000	0.000000	0.000000	0.000000	
44677	0.392946	0.197905	9.745224	-0.087904	-0.044501	0.171222	0.324821	0.165722	0.344548	-0.348979	-0.671264	1.395368	0.000000000	0.000000000	0.000000	0.000000	0.000000	0.000000	
44678	0.448047	0.110872	9.732666	-0.088347	-0.033523	0.151345	0.322550	0.164534	0.342454	-0.388816	-0.686466	1.470621	0.000000000	0.000000000	0.000000	0.000000	0.000000	0.000000	
44679	0.472854	0.077013	9.740644	-0.073193	-0.039107	0.115684	0.323585	0.165674	0.344520	-0.421860	-0.704474	1.528291	0.000000000	0.000000000	0.000000	0.000000	0.000000	0.000000	
44680	0.390304	0.032082	9.798180	-0.051917	-0.028740	0.108621	0.322156	0.163629	0.342582	-0.444092	-0.717463	1.582170	0.000000000	0.000000000	0.000000	0.000000	0.000000	0.000000	
44681	0.293469	-0.036806	9.827112	-0.053348	-0.025040	0.100311	0.326094	0.164207	0.344133	-0.467537	-0.728914	1.632467	0.000000000	0.000000000	0.000000	0.000000	0.000000	0.000000	
44682	0.277912	-0.099225	9.798295	-0.049043	-0.019534	0.069399	0.322069	0.163224	0.342857	-0.488177	-0.737621	1.667522	0.000000000	0.000000000	0.000000	0.000000	0.000000	0.000000	
44683	0.326363	-0.089960	9.843390	-0.049758	-0.006802	0.059343	0.325818	0.164861	0.344593	-0.509669	-0.740615	1.698193	0.000000000	0.000000000	0.000000	0.000000	0.000000	0.000000	
44684	0.289953	-0.094448	9.858209	-0.028751	-0.008163	0.049612	0.323472	0.162126	0.341906	-0.520504	-0.743956	1.725705	0.000000000	0.000000000	0.000000	0.000000	0.000000	0.000000	
44685	0.208202	-0.122643	9.838037	-0.020930	-0.005700	0.059643	0.325072	0.163789	0.343356	-0.528242	-0.746488	1.756518	0.000000000	0.000000000	0.000000	0.000000	0.000000	0.000000	
44686	0.194265	-0.141753	9.845966	-0.008653	0.012271	0.027931	0.323751	0.162019	0.343540	-0.529346	-0.740161	1.772148	0.000000000	0.000000000	0.000000	0.000000	0.000000	0.000000	
44687	0.234626	-0.146931	9.817045	-0.008134	0.006871	0.021747	0.325401	0.162842	0.345837	-0.530765	-0.736910	1.784814	0.000000000	0.000000000	0.000000	0.000000	0.000000	0.000000	
44688	0.241343	-0.108521	9.813087	-0.002733	0.008543	0.022462	0.324236	0.162094	0.343998	-0.529006	-0.732386	1.798012	0.000000000	0.000000000	0.000000	0.000000	0.000000	0.000000	
44689	0.159956	-0.062183	9.790627	0.002618	0.009316	0.023153	0.324764	0.163154	0.345737	-0.525285	-0.728007	1.811339	0.000000000	0.000000000	0.000000	0.000000	0.000000	0.000000	
44690	0.120452	-0.016176	9.785659	0.005595	0.002902	0.025374	0.323339	0.162300	0.343736	-0.519567	-0.726165	1.825073	0.000000000	0.000000000	0.000000	0.000000	0.000000	0.000000	
44691	0.196261	0.028849	9.761315	0.014146	0.004560	0.015736	0.324806	0.163165	0.345476	-0.510221	-0.724107	1.834879	0.000000000	0.000000000	0.000000	0.000000	0.000000	0.000000	
44692	0.295474	0.126601	9.759479	0.035725	-0.005685	-0.022643	0.323636	0.161734	0.344070	-0.489826	-0.726572	1.827492	0.000000000	0.000000000	0.000000	0.000000	0.000000	0.000000	
44693	0.348086	0.121364	9.768600	0.027557	-0.015329	-0.039869	0.325279	0.162600	0.345569	-0.473587	-0.734368	1.810831	0.000000000	0.000000000	0.000000	0.000000	0.000000	0.000000	
44694	0.272294	0.112395	9.783264	0.024438	-0.007974	-0.047545	0.324285	0.162062	0.344537	-0.458427	-0.738017	1.791099	0.000000000	0.000000000	0.000000	0.000000	0.000000	0.000000	
44695	0.252284	-0.017269	9.790277	0.030901	0.013603	-0.053960	0.326194	0.162744	0.344223	-0.440407	-0.732128	1.767599	0.000000000	0.000000000	0.000000	0.000000	0.000000	0.000000	
44696	0.154625	-0.088613	9.768023	0.029047	0.013566	-0.039824	0.323242	0.161638	0.343891	-0.423095	-0.725452	1.751467	0.000000000	0.000000000	0.000000	0.000000	0.000000	0.000000	
44697	0.068606	-0.099942	9.747331	0.021235	0.024638	-0.044568	0.324610	0.163158	0.345849	-0.409762	-0.714228	1.732416	0.000000000	0.000000000	0.000000	0.000000	0.000000	0.000000	
44698	0.083968	-0.097627	9.780909	0.031444	0.015422	-0.057508	0.324036	0.163240	0.342585	-0.391206	-0.706717	1.706806	0.000000000	0.000000000	0.000000	0.000000	0.000000	0.000000	
44699	0.081044	-0.083147	9.807310	0.021582	0.004798	-0.055189	0.325248	0.162982	0.343422	-0.377661	-0.704951	1.682753	0.000000000	0.000000000	0.000000	0.000000	0.000000	0.000000	
44700	0.030671	-0.034612	9.830149	0.026943	-0.016941	-0.070538	0.322618	0.162590	0.344156	-0.361179	-0.712917	1.652062	0.000000000	0.000000000	0.000000	0.000000	0.000000	0.000000	
44701	0.133479	0.039006	9.775229	0.034721	-0.011484	-0.107288	0.324267	0.164056	0.344297	-0.340995	-0.719026	1.603179	0.000000000	0.000000000	0.000000	0.000000	0.000000	0.000000	
44702	0.299033	0.013542	9.740326	0.018591	-0.029085	-0.121925	0.322972	0.162084	0.343301	-0.328181	-0.732916	1.549220	0.000000000	0.000000000	0.000000	0.000000	0.000000	0.000000	
44703	0.271849	-0.065535	9.778110	0.024175	-0.027453	-0.115760	0.324991	0.164149	0.344123	-0.312934	-0.746749	1.496334	0.000000000	0.000000000	0.000000	0.000000	0.000000	0.000000	
44704	0.119630	-0.102704	9.807331	0.004980	-0.025234	-0.105813	0.322381	0.163598	0.342878	-0.306693	-0.758733	1.447336	0.000000000	0.000000000	0.000000	0.000000	0.000000	0.000000	
44705	0.075704	-0.102382	9.767689	0.000107	-0.012460	-0.104768	0.324342	0.163822	0.343656	-0.303017	-0.765332	1.399657	0.000000000	0.000000000	0.000000	0.000000	0.000000	0.000000	
44706	0.134034	-0.045162	9.767892	0.000189	-0.012376	-0.119150	0.322757	0.164071	0.343434	-0.298965	-0.771204	1.345791	0.000000000	0.000000000	0.000000	0.000000	0.000000	0.000000	
44707	0.225206	-0.031452	9.806270	0.012724	-0.019823	-0.135368	0.324170	0.165985	0.345377	-0.289040	-0.781408	1.283517	0.000000000	0.000000000	0.000000	0.000000	0.000000	0.000000	
44708	0.236156	-0.082018	9.822190	0.011495	-0.026984	-0.142668	0.322166	0.164859	0.344243	-0.279417	-0.794294	1.217827	0.000000000	0.000000000	0.000000	0.000000	0.000000	0.000000	
44709	0.127768	-0.131640	9.793736	0.010022	-0.019796	-0.128534	0.323615	0.166827	0.345127	-0.270838	-0.804471	1.158814	0.000000000	0.000000000	0.000000	0.000000	0.000000	0.000000	
44710	-0.036271	-0.202429	9.772763	0.003648	-0.026036	-0.116788	0.322596	0.167353	0.341516	-0.265111	-0.816828	1.104187	0.000000000	0.000000000	0.000000	0.000000	0.000000	0.000000	
44711	-0.109423	-0.281193	9.748755	-0.020678	-0.020930	-0.114727	0.323800	0.167003	0.344081	-0.271393	-0.827350	1.051766	0.000000000	0.000000000	0.000000	0.000000	0.000000	0.000000	
44712	-0.078621	-0.240531	9.786780	-0.005408	-0.028730	-0.082927	0.321981	0.165328	0.343133	-0.270204	-0.840921	1.017009	0.000000000	0.000000000	0.000000	0.000000	0.000000	0.000000	
44713	-0.134137	-0.235201	9.838095	-0.004621	-0.016336	-0.042435	0.324588	0.167195	0.344440	-0.269433	-0.848905	0.999094	0.000000000	0.000000000	0.000000	0.000000	0.000000	0.000000	
44714	-0.212094	-0.210504	9.840366	0.007899	-0.002378	-0.008466	0.321083	0.167151	0.342255	-0.262406	-0.849725	0.995333	0.000000000	0.000000000	0.000000	0.000000	0.000000	0.000000	
44715	-0.130531	-0.182350	9.824030	-0.000401	0.004991	0.002959	0.323069	0.168571	0.342841	-0.260037	-0.847198	0.999041	0.000000000	0.000000000	0.000000	0.000000	0.000000	0.000000	
44716	-0.144010	-0.172649	9.798004	-0.004717	-0.004036	0.018607	0.321098	0.166391	0.341634	-0.259225	-0.848751	1.011196	0.000000000	0.000000000	0.000000	0.000000	0.000000	0.000000	
44717	-0.230081	-0.157520	9.784636	0.010070	0.006281	0.047511	0.321414	0.167312	0.343749	-0.252246	-0.845279	1.036170	0.000000000	0.000000000	0.000000	0.000000	0.000000	0.000000	
44718	-0.084364	-0.113046	9.788649	-0.007239	0.007470	0.070349	0.320499	0.166113	0.342630	-0.253000	-0.841230	1.071790	0.000000000	0.000000000	0.000000	0.000000	0.000000	0.000000	
44719	-0.154474	-0.081225	9.770038	-0.022620	0.005753	0.118605	0.323275	0.167217	0.343204	-0.262150	-0.837673	1.130707	0.000000000	0.000000000	0.000000	0.000000	0.000000	0.000000	
44720	0.029746	-0.126078	9.737486	-0.025153	0.010208	0.139866	0.322162	0.166012	0.342457	-0.271936	-0.832153	1.200019	0.000000000	0.000000000	0.000000	0.000000	0.000000	0.000000	
44721	0.088466	-0.100088	9.764452	-0.046693	-0.023705	0.153339	0.323791	0.165938	0.344268	-0.292857	-0.842498	1.275589	0.000000000	0.000000000	0.000000	0.000000	0.000000	0.000000	
44722	0.087149	-0.102471	9.774010	-0.051821	-0.021928	0.179612	0.322199	0.163805	0.344170	-0.315672	-0.852176	1.364746	0.000000000	0.000000000	0.000000	0.000000	0.000000	0.000000	
44723	0.127283	-0.054689	9.798639	-0.058983	-0.016259	0.167808	0.325164	0.165468	0.343944	-0.342594	-0.858840	1.447213	0.000000000	0.000000000	0.000000	0.000000	0.000000	0.000000	
44724	0.172151	-0.086336	9.784850	-0.059613	-0.028859	0.160622	0.322981	0.164767	0.342498	-0.369021	-0.871804	1.524204	0.000000000	0.000000000	0.000000	0.000000	0.000000	0.000000	
44725	0.217533	-0.065079	9.780926	-0.067855	-0.023252	0.163967	0.325085	0.164511	0.344647	-0.400180	-0.881775	1.604867	0.000000000	0.000000000	0.000000	0.000000	0.000000	0.000000	
44726	0.240037	0.016526	9.817949	-0.064307	-0.026869	0.149167	0.323342	0.164300	0.343366	-0.428795	-0.893748	1.677646	0.000000000	0.000000000	0.000000	0.000000	0.000000	0.000000	
44727	0.312700	-0.012933	9.817430	-0.056820	-0.023433	0.148390	0.327449	0.163305	0.344492	-0.454536	-0.903870	1.750885	0.000000000	0.000000000	0.000000	0.000000	0.000000	0.000000	
44728	0.355755	-0.046998	9.779085	-0.053663	-0.017952	0.126318	0.324569	0.163118	0.341733	-0.477922	-0.911608	1.814335	0.000000000	0.000000000	0.000000	0.000000	0.000000	0.000000	
44729	0.341622	-0.092583	9.762633	-0.058592	-0.014119	0.110345	0.327355	0.163026	0.344892	-0.504221	-0.917512	1.869382	0.000000000	0.000000000	0.000000	0.000000	0.000000	0.000000	
44730	0.230718	-0.122899	9.777664	-0.057261	-0.014992	0.099725	0.323999	0.160595	0.342719	-0.529134	-0.923896	1.920778	0.000000000	0.000000000	0.000000	0.000000	0.000000	0.000000	
44731	0.072900	-0.188941	9.747761	-0.066693	-0.015761	0.116417	0.327716	0.162395	0.343911	-0.559398	-0.930501	1.978739	0.000000000	0.000000000	0.000000	0.000000	0.000000	0.000000	
44732	-0.026107	-0.115975	9.754712	-0.071898	-0.003119	0.140772	0.323803	0.161479	0.343708	-0.591626	-0.930967	2.045886	0.000000000	0.000000000	0.000000	0.000000	0.000000	0.000000	
44733	0.046171	-0.097282	9.807716	-0.075924	-0.003086	0.151030	0.326952	0.161865	0.344900	-0.626563	-0.931175	2.120315	0.000000000	0.000000000	0.000000	0.000000	0.000000	0.000000	
44734	0.216383	-0.170842	9.800098	-0.069663	-0.010460	0.148385	0.324842	0.160547	0.342568	-0.657787	-0.935025	2.193683	0.000000000	0.000000000	0.000000	0.000000	0.000000	0.000000	
44735	0.296185	-0.171562	9.751882	-0.066201	-0.021331	0.138144	0.327246	0.159134	0.343755	-0.688025	-0.944001	2.262064	0.000000000	0.000000000	0.000000	0.000000	0.000000	0.000000	
44736	0.189136	-0.165824	9.784476	-0.076795	-0.035412	0.116983	0.326418	0.159231	0.342977	-0.722432	-0.959868	2.321408	0.000000000	0.000000000	0.000000	0.000000	0.000000	0.000000	
44737	0.111357	-0.150708	9.820808	-0.068338	-0.008544	0.125145	0.328240	0.159590	0.343863	-0.753626	-0.962732	2.383515	0.000000000	0.000000000	0.000000	0.000000	0.000000	0.000000	
44738	0.049759	-0.097300	9.817903	-0.062258	-0.015876	0.116995	0.326106	0.157158	0.342647	-0.781105	-0.969209	2.442703	0.000000000	0.000000000	0.000000	0.000000	0.000000	0.000000	
44739	0.049600	-0.085293	9.803305	-0.074063	-0.024816	0.148715	0.329947	0.158773	0.344662	-0.815200	-0.979539	2.516172	0.000000000	0.000000000	0.000000	0.000000	0.000000	0.000000	
44740	0.204894	-0.101047	9.774405	-0.069186	-0.024919	0.145817	0.327073	0.156117	0.343625	-0.846243	-0.990069	2.588487	0.000000000	0.000000000	0.000000	0.000000	0.000000	0.000000	
44741	0.277107	-0.099254	9.766574	-0.071135	-0.039311	0.141157	0.328013	0.157621	0.343936	-0.878870	-1.007343	2.658465	0.000000000	0.000000000	0.000000	0.000000	0.000000	0.000000	
44742	0.270726	-0.108808	9.775478	-0.064574	-0.028595	0.136590	0.329137	0.156068	0.344431	-0.907670	-1.019617	2.725979	0.000000000	0.000000000	0.000000	0.000000	0.000000	0.000000	
44743	0.243807	-0.118183	9.791497	-0.060320	-0.041297	0.126453	0.330271	0.155662	0.345664	-0.935006	-1.037939	2.788971	0.000000000	0.000000000	0.000000	0.000000	0.000000	0.000000	
44744	0.246811	-0.147075	9.779680	-0.078683	-0.036354	0.131128	0.330046	0.155528	0.343518	-0.970535	-1.053891	2.853913	0.000000000	0.000000000	0.000000	0.000000	0.000000	0.000000	
44745	0.192855	-0.156267	9.758207	-0.080081	-0.033593	0.129111	0.330422	0.155193	0.344382	-1.007348	-1.068467	2.918135	0.000000000	0.000000000	0.000000	0.000000	0.000000	0.000000	
44746	0.171117	-0.117585	9.784678	-0.059617	-0.032261	0.124678	0.329010	0.155870	0.343364	-1.033749	-1.082442	2.977848	0.000000000	0.000000000	0.000000	0.000000	0.000000	0.000000	
44747	0.192391	-0.110519	9.811718	-0.061821	-0.022224	0.118026	0.330811	0.154770	0.346843	-1.061719	-1.091619	3.036692	0.000000000	0.000000000	0.000000	0.000000	0.000000	0.000000	
44748	0.206548	-0.120252	9.813507	-0.053015	-0.021505	0.112930	0.329341	0.151906	0.345472	-1.084882	-1.100508	3.096490	0.000000000	0.000000000	0.000000	0.000000	0.000000	0.000000	
44749	0.243322	-0.175855	9.818114	-0.046638	-0.028875	0.109370	0.331490	0.152770	0.346374	-1.105510	-1.112916	3.151270	0.000000000	0.000000000	0.000000	0.000000	0.000000	0.000000	
44750	0.304503	-0.226894	9.786919	-0.055472	-0.019507	0.091049	0.328868	0.152388	0.344456	-1.129662	-1.121010	3.195409	0.000000000	0.000000000	0.000000	0.000000	0.000000	0.000000	
44751	0.274975	-0.262724	9.778249	-0.064443	-0.024780	0.102455	0.331362	0.152654	0.346231	-1.158774	-1.131551	3.246863	0.000000000	0.000000000	0.000000	0.000000	0.000000	0.000000	
44752	0.230973	-0.214255	9.789738	-0.062294	-0.013951	0.097263	0.331180	0.151723	0.344133	-1.186255	-1.136889	3.296682	0.000000000	0.000000000	0.000000	0.000000	0.000000	0.000000	
44753	0.176544	-0.187319	9.819328	-0.054916	-0.006991	0.112596	0.334090	0.152817	0.344725	-1.210913	-1.138792	3.352810	0.000000000	0.000000000	0.000000	0.000000	0.000000	0.000000	
44754	0.182367	-0.194592	9.810331	-0.059854	-0.008653	0.108340	0.330065	0.150217	0.344065	-1.237339	-1.141443	3.406892	0.000000000	0.000000000	0.000000	0.000000	0.000000	0.000000	
44755	0.215612	-0.233384	9.770732	-0.052325	-0.016118	0.116619	0.332284	0.151055	0.345375	-1.260801	-1.147613	3.465037	0.000000000	0.000000000	0.000000	0.000000	0.000000	0.000000	
44756	0.198502	-0.221217	9.773435	-0.046560	-0.004435	0.104734	0.331180	0.149215	0.344132	-1.280851	-1.148245	3.518089	0.000000000	0.000000000	0.000000	0.000000	0.000000	0.000000	
44757	0.205000	-0.204406	9.803471	-0.058259	-0.013989	0.087013	0.333002	0.150465	0.345634	-1.306858	-1.153674	3.562081	0.000000000	0.000000000	0.000000	0.000000	0.000000	0.000000	
44758	0.249561	-0.151868	9.814075	-0.051551	-0.008724	0.086089	0.330956	0.149328	0.344760	-1.329119	-1.156515	3.604366	0.000000000	0.000000000	0.000000	0.000000	0.000000	0.000000	
44759	0.272796	-0.079939	9.804966	-0.048814	-0.012355	0.077474	0.332750	0.148025	0.344667	-1.350445	-1.161277	3.643790	0.000000000	0.000000000	0.000000	0.000000	0.000000	0.000000	
44760	0.308022	-0.085072	9.777824	-0.037931	-0.003556	0.073511	0.332974	0.149447	0.342500	-1.366086	-1.161763	3.681526	0.000000000	0.000000000	0.000000	0.000000	0.000000	0.000000	
44761	0.347454	-0.090234	9.756082	-0.033601	-0.008013	0.045357	0.332793	0.148037	0.344407	-1.379732	-1.164886	3.705570	0.000000000	0.000000000	0.000000	0.000000	0.000000	0.000000	
44762	0.403275	-0.088268	9.780215	-0.030394	-0.006144	0.021514	0.332793	0.148037	0.344407	-1.391272	-1.167189	3.719281	0.000000000	0.000000000	0.000000	0.000000	0.000000	0.000000	
44763	0.420978	-0.061942	9.801961	-0.019316	-0.005419	0.005926	0.333993	0.147948	0.344570	-1.397597	-1.169668	3.724472	0.000000000	0.000000000	0.000000	0.000000	0.000000	0.000000	
44764	0.341066	-0.143038	9.791683	-0.020315	0.003745	-0.010448	0.331607	0.149065	0.343931	-1.404011	-1.167621	3.719932	0.000000000	0.000000000	0.000000	0.000000	0.000000	0.000000	
44765	0.240191	-0.147026	9.773973	-0.013864	0.003639	-0.018585	0.334539	0.149439	0.345625	-1.407424	-1.166120	3.713315	0.000000000	0.000000000	0.000000	0.000000	0.000000	0.000000	
44766	0.136788	-0.208694	9.760731	-0.007451	0.019807	-0.026810	0.332026	0.148741	0.344534	-1.407535	-1.156599	3.703386	0.000000000	0.000000000	0.000000	0.000000	0.000000	0.000000	
44767	0.182551	-0.228288	9.781123	-0.018816	0.009274	-0.033670	0.334090	0.148692	0.345340	-1.413149	-1.152553	3.689499	0.000000000	0.000000000	0.000000	0.000000	0.000000	0.000000	
44768	0.202871	-0.132258	9.800861	-0.021289	0.018405	-0.038581	0.331968	0.148599	0.344799	-1.419757	-1.143842	3.673588	0.000000000	0.000000000	0.000000	0.000000	0.000000	0.000000	
44769	0.217322	-0.060243	9.802795	-0.012468	0.008425	-0.068814	0.334994	0.150142	0.346710	-1.421905	-1.140624	3.642930	0.000000000	0.000000000	0.000000	0.000000	0.000000	0.000000	
44770	0.285389	-0.075258	9.784685	0.005014	0.016173	-0.075459	0.332835	0.148856	0.343839	-1.415608	-1.133415	3.609954	0.000000000	0.000000000	0.000000	0.000000	0.000000	0.000000	
44771	0.342620	-0.099815	9.753021	0.010279	0.005298	-0.092647	0.334593	0.149199	0.345114	-1.406568	-1.132042	3.567955	0.000000000	0.000000000	0.000000	0.000000	0.000000	0.000000	
44772	0.273367	-0.060794	9.729664	0.006607	0.010841	-0.096805	0.331771	0.148592	0.345171	-1.399316	-1.127618	3.524521	0.000000000	0.000000000	0.000000	0.000000	0.000000	0.000000	
44773	0.231627	0.026097	9.714736	0.014864	-0.001937	-0.110027	0.333042	0.150258	0.346976	-1.387774	-1.129923	3.474307	0.000000000	0.000000000	0.000000	0.000000	0.000000	0.000000	
44774	0.274139	0.136372	9.737318	0.038204	-0.009687	-0.119417	0.331365	0.150282	0.343703	-1.365223	-1.135536	3.418798	0.000000000	0.000000000	0.000000	0.000000	0.000000	0.000000	
44775	0.358434	0.140493	9.750485	0.020995	-0.012757	-0.140607	0.332629	0.151992	0.344708	-1.350200	-1.143399	3.354102	0.000000000	0.000000000	0.000000	0.000000	0.000000	0.000000	
44776	0.408397	-0.148484	9.724846	0.028362	-0.006618	-0.139552	0.330353	0.151094	0.344587	-1.332144	-1.147739	3.289642	0.000000000	0.000000000	0.000000	0.000000	0.000000	0.000000	
44777	0.373565	-0.316506	9.722625	0.021571	-0.007336	-0.143128	0.331698	0.150744	0.344518	-1.316816	-1.153131	3.223682	0.000000000	0.000000000	0.000000	0.000000	0.000000	0.000000	
44778	0.169421	-0.473474	9.742647	0.014882	0.013597	-0.138767	0.330395	0.151105	0.344327	-1.305194	-1.147780	3.160868	0.000000000	0.000000000	0.000000	0.000000	0.000000	0.000000	
44779	-0.114248	-0.466220	9.813569	0.003284	0.001954	-0.109753	0.332059	0.153511	0.344155	-1.299096	-1.148221	3.110740	0.000000000	0.000000000	0.000000	0.000000	0.000000	0.000000	
44780	-0.130833	-0.441971	9.872295	0.008498	0.030677	-0.096635	0.330210	0.151655	0.344141	-1.290929	-1.134244	3.066887	0.000000000	0.000000000	0.000000	0.000000	0.000000	0.000000	
44781	-0.010455	-0.435782	9.853575	0.012348	0.007921	-0.086956	0.332483	0.153061	0.344633	-1.280884	-1.131383	3.027577	0.000000000	0.000000000	0.000000	0.000000	0.000000	0.000000	
44782	0.118396	-0.396045	9.797060	0.001943	-0.014354	-0.099016	0.329391	0.152818	0.343176	-1.275839	-1.138913	2.981900	0.000000000	0.000000000	0.000000	0.000000	0.000000	0.000000	
44783	0.144364	-0.381779	9.846597	0.012777	-0.019131	-0.101105	0.331905	0.154489	0.345808	-1.265573	-1.149055	2.936123	0.000000000	0.000000000	0.000000	0.000000	0.000000	0.000000	
44784	0.121563	-0.386393	9.850986	0.009047	-0.011953	-0.076478	0.329579	0.153459	0.343300	-1.257338	-1.155189	2.902235	0.000000000	0.000000000	0.000000	0.000000	0.000000	0.000000	
44785	0.002843	-0.385459	9.801824	0.006368	-0.021762	-0.087604	0.330819	0.153972	0.344498	-1.250368	-1.166333	2.862928	0.000000000	0.000000000	0.000000	0.000000	0.000000	0.000000	
44786	-0.074397	-0.339128	9.804214	-0.003551	-0.003603	-0.059415	0.329025	0.152602	0.342741	-1.248303	-1.168297	2.838280	0.000000000	0.000000000	0.000000	0.000000	0.000000	0.000000	
44787	-0.075049	-0.327048	9.850360	-0.005631	-0.012670	-0.047052	0.332162	0.155021	0.345416	-1.247530	-1.174480	2.818235	0.000000000	0.000000000	0.000000	0.000000	0.000000	0.000000	
44788	0.094219	-0.268396	9.808743	-0.012536	-0.016342	-0.009282	0.329255	0.154145	0.343221	-1.250245	-1.182002	2.814826	0.000000000	0.000000000	0.000000	0.000000	0.000000	0.000000	
44789	0.261852	-0.238556	9.791203	-0.013905	-0.030722	-0.018348	0.330335	0.154061	0.345889	-1.253729	-1.196488	2.808674	0.000000000	0.000000000	0.000000	0.000000	0.000000	0.000000	
44790	0.312347	-0.303949	9.744036	-0.012900	-0.040702	-0.016326	0.330186	0.155475	0.344336	-1.256552	-1.215713	2.802565	0.000000000	0.000000000	0.000000	0.000000	0.000000	0.000000	
44791	0.197396	-0.363058	9.782836	-0.012333	-0.045325	-0.001836	0.332293	0.153902	0.346421	-1.259534	-1.237031	2.804455	0.000000000	0.000000000	0.000000	0.000000	0.000000	0.000000	
44792	0.032011	-0.356795	9.849355	-0.004898	-0.036602	0.020674	0.330358	0.153394	0.343539	-1.258916	-1.253911	2.819443	0.000000000	0.000000000	0.000000	0.000000	0.000000	0.000000	
44793	0.044304	-0.376117	9.863055	-0.000792	-0.026104	0.062546	0.332008	0.155025	0.345528	-1.257160	-1.265256	2.851870	0.000000000	0.000000000	0.000000	0.000000	0.000000	0.000000	
44794	0.203840	-0.437598	9.827339	0.008788	-0.028200	0.071105	0.330201	0.153824	0.343098	-1.250545	-1.277599	2.887349	0.000000000	0.000000000	0.000000	0.000000	0.000000	0.000000	
44795	0.279173	-0.457440	9.846631	0.017193	-0.041063	0.070551	0.331996	0.154386	0.345162	-1.240461	-1.296025	2.923756	0.000000000	0.000000000	0.000000	0.000000	0.000000	0.000000	
44796	0.234262	-0.389715	9.870191	0.025639	-0.019566	0.069743	0.329844	0.153221	0.344939	-1.225803	-1.304274	2.959567	0.000000000	0.000000000	0.000000	0.000000	0.000000	0.000000	
44797	0.275437	-0.368429	9.860866	0.027794	0.003932	0.062699	0.331886	0.153893	0.344643	-1.210680	-1.301340	2.991763	0.000000000	0.000000000	0.000000	0.000000	0.000000	0.000000	
44798	0.165256	-0.300233	9.820176	0.030727	0.019988	0.088135	0.329837	0.152456	0.344448	-1.193779	-1.290543	3.036642	0.000000000	0.000000000	0.000000	0.000000	0.000000	0.000000	
44799	0.053245	-0.270509	9.764609	0.004889	0.030518	0.097111	0.331486	0.152223	0.344280	-1.189989	-1.274513	3.085004	0.000000000	0.000000000	0.000000	0.000000	0.000000	0.000000	
44800	0.031283	-0.135725	9.723075	-0.007458	0.012715	0.101790	0.330037	0.152681	0.342473	-1.191446	-1.267061	3.135086	0.000000000	0.000000000	0.000000	0.000000	0.000000	0.000000	
44801	0.026920	-0.073138	9.754221	-0.011960	0.022704	0.112791	0.332401	0.153257	0.343551	-1.195769	-1.254474	3.191006	0.000000000	0.000000000	0.000000	0.000000	0.000000	0.000000	
44802	0.178319	-0.021503	9.754102	-0.012188	0.002854	0.106604	0.331513	0.151212	0.343408	-1.199522	-1.251675	3.246058	0.000000000	0.000000000	0.000000	0.000000	0.000000	0.000000	
44803	0.295056	0.011162	9.732519	-0.014181	-0.000632	0.092878	0.333493	0.151223	0.345659	-1.204545	-1.250439	3.292699	0.000000000	0.000000000	0.000000	0.000000	0.000000	0.000000	
44804	0.352747	-0.051843	9.725186	-0.013801	-0.007758	0.073218	0.330998	0.152491	0.342344	-1.208721	-1.253032	3.327511	0.000000000	0.000000000	0.000000	0.000000	0.000000	0.000000	
44805	0.328106	-0.104549	9.712252	-0.029002	-0.012669	0.049605	0.334133	0.151294	0.346005	-1.220279	-1.258061	3.353612	0.000000000	0.000000000	0.000000	0.000000	0.000000	0.000000	
44806	0.219375	-0.108467	9.698407	-0.046478	-0.002989	0.014771	0.332237	0.151305	0.343234	-1.239447	-1.258963	3.364701	0.000000000	0.000000000	0.000000	0.000000	0.000000	0.000000	
44807	0.097859	-0.109805	9.746177	-0.043770	0.002356	0.016883	0.332872	0.150857	0.345861	-1.257636	-1.257108	3.375022	0.000000000	0.000000000	0.000000	0.000000	0.000000	0.000000	
44808	0.076763	-0.126452	9.753199	-0.046184	0.006814	0.037213	0.329768	0.150865	0.344655	-1.276896	-1.253087	3.393596	0.000000000	0.000000000	0.000000	0.000000	0.000000	0.000000	
44809	0.140652	-0.146205	9.766170	-0.042646	-0.008735	0.052199	0.332981	0.150377	0.344840	-1.294859	-1.256071	3.420893	0.000000000	0.000000000	0.000000	0.000000	0.000000	0.000000	
44810	0.149265	-0.244899	9.730652	-0.060390	-0.037192	0.045490	0.330577	0.150090	0.343343	-1.321003	-1.272951	3.446061	0.000000000	0.000000000	0.000000	0.000000	0.000000	0.000000	
44811	0.193419	-0.214000	9.738745	-0.061340	-0.020813	0.031772	0.333663	0.151350	0.345542	-1.347689	-1.281878	3.463742	0.000000000	0.000000000	0.000000	0.000000	0.000000	0.000000	
44812	0.104788	-0.126673	9.764062	-0.068914	-0.022530	0.047798	0.331410	0.149785	0.343071	-1.377934	-1.291710	3.489266	0.000000000	0.000000000	0.000000	0.000000	0.000000	0.000000	
44813	0.074363	-0.049446	9.791910	-0.072066	-0.031535	0.054593	0.334044	0.149915	0.344739	-1.409894	-1.305385	3.517972	0.000000000	0.000000000	0.000000	0.000000	0.000000	0.000000	
44814	0.274464	-0.080010	9.754101	-0.070871	-0.018801	0.036739	0.331756	0.149187	0.343944	-1.440961	-1.313540	3.538087	0.000000000	0.000000000	0.000000	0.000000	0.000000	0.000000	
44815	0.424271	-0.042822	9.724573	-0.064917	-0.042331	0.016128	0.334142	0.148151	0.345508	-1.468971	-1.332898	3.548573	0.000000000	0.000000000	0.000000	0.000000	0.000000	0.000000	
44816	0.476947	-0.014345	9.779961	-0.043228	-0.033719	-0.001652	0.332687	0.147200	0.345365	-1.486427	-1.348629	3.552997	0.000000000	0.000000000	0.000000	0.000000	0.000000	0.000000	
44817	0.496813	-0.089051	9.777527	-0.035096	-0.030186	-0.021227	0.334141	0.148960	0.345200	-1.499639	-1.362831	3.545513	0.000000000	0.000000000	0.000000	0.000000	0.000000	0.000000	
44818	0.407488	-0.162856	9.766060	-0.024751	-0.032180	-0.032397	0.332092	0.149140	0.344389	-1.507922	-1.378210	3.530152	0.000000000	0.000000000	0.000000	0.000000	0.000000	0.000000	
44819	0.300834	-0.229279	9.776720	-0.029722	-0.024740	-0.046612	0.334202	0.149485	0.345180	-1.518230	-1.390220	3.510487	0.000000000	0.000000000	0.000000	0.000000	0.000000	0.000000	
44820	0.252466	-0.320213	9.804496	-0.008135	-0.028879	-0.048129	0.332832	0.150173	0.343902	-1.518390	-1.404227	3.489629	0.000000000	0.000000000	0.000000	0.000000	0.000000	0.000000	
44821	0.207384	-0.367910	9.818152	-0.023096	-0.014066	-0.044854	0.333760	0.150312	0.345079	-1.525605	-1.411117	3.470670	0.000000000	0.000000000	0.000000	0.000000	0.000000	0.000000	
44822	0.189859	-0.403816	9.830468	-0.018607	-0.007044	-0.028091	0.333193	0.148816	0.344154	-1.530988	-1.414451	3.461714	0.000000000	0.000000000	0.000000	0.000000	0.000000	0.000000	
44823	0.199750	-0.430313	9.860880	-0.015530	-0.010795	-0.018644	0.335739	0.149350	0.345789	-1.535006	-1.419415	3.455230	0.000000000	0.000000000	0.000000	0.000000	0.000000	0.000000	
44824	0.237055	-0.396957	9.865672	-0.013152	-0.011771	-0.016517	0.331953	0.150002	0.343264	-1.537921	-1.424857	3.447748	0.000000000	0.000000000	0.000000	0.000000	0.000000	0.000000	
44825	0.260305	-0.389967	9.839454	0.002630	-0.001351	-0.009038	0.335232	0.151695	0.344537	-1.533468	-1.425194	3.445732	0.000000000	0.000000000	0.000000	0.000000	0.000000	0.000000	
44826	0.292877	-0.469657	9.775392	-0.009844	0.001669	-0.008929	0.332171	0.150823	0.342454	-1.534889	-1.424125	3.443010	0.000000000	0.000000000	0.000000	0.000000	0.000000	0.000000	
44827	0.202362	-0.377531	9.778584	-0.001729	0.016848	-0.009763	0.333075	0.150012	0.346596	-1.532615	-1.415789	3.440419	0.000000000	0.000000000	0.000000	0.000000	0.000000	0.000000	
44828	0.092707	-0.314068	9.808491	-0.017785	0.012573	0.015021	0.332429	0.149012	0.343910	-1.538107	-1.409209	3.452083	0.000000000	0.000000000	0.000000	0.000000	0.000000	0.000000	
44829	0.134739	-0.285581	9.794420	-0.011742	0.013357	0.010442	0.333969	0.149259	0.344763	-1.540874	-1.402191	3.459180	0.000000000	0.000000000	0.000000	0.000000	0.000000	0.000000	
44830	0.250787	-0.262504	9.794628	-0.012015	0.012448	0.012227	0.332159	0.150348	0.343937	-1.543576	-1.395706	3.465304	0.000000000	0.000000000	0.000000	0.000000	0.000000	0.000000	
44831	0.298122	-0.236448	9.795823	-0.006953	0.003288	0.011175	0.334078	0.150560	0.344975	-1.544054	-1.393510	3.472881	0.000000000	0.000000000	0.000000	0.000000	0.000000	0.000000	
44832	0.283682	-0.181034	9.789193	-0.016251	-0.001007	0.011716	0.332368	0.149213	0.342697	-1.548776	-1.393453	3.482285	0.000000000	0.000000000	0.000000	0.000000	0.000000	0.000000	
44833	0.272775	-0.183360	9.778073	-0.018402	-0.004536	0.006047	0.333966	0.149767	0.345134	-1.554604	-1.395086	3.487513	0.000000000	0.000000000	0.000000	0.000000	0.000000	0.000000	
44834	0.229426	-0.180600	9.772559	-0.007862	-0.011077	-0.001483	0.331001	0.148749	0.343204	-1.555171	-1.400005	3.488916	0.000000000	0.000000000	0.000000	0.000000	0.000000	0.000000	
44835	0.213968	-0.238188	9.763219	-0.003340	0.007796	-0.000971	0.334632	0.149718	0.345225	-1.553680	-1.395832	3.490633	0.000000000	0.000000000	0.000000	0.000000	0.000000	0.000000	
44836	0.265006	-0.272260	9.776968	-0.010709	0.005343	-0.014528	0.331613	0.149748	0.343498	-1.555449	-1.393082	3.485165	0.000000000	0.000000000	0.000000	0.000000	0.000000	0.000000	
44837	0.268489	-0.185734	9.772660	0.003209	0.004982	-0.010858	0.334047	0.148598	0.344676	-1.550691	-1.390402	3.482198	0.000000000	0.000000000	0.000000	0.000000	0.000000	0.000000	
44838	0.263991	-0.166459	9.774545	0.005373	-0.009486	-0.019475	0.332629	0.150210	0.343475	-1.544729	-1.394794	3.475590	0.000000000	0.000000000	0.000000	0.000000	0.000000	0.000000	
44839	0.314480	-0.190923	9.776075	-0.011560	-0.018822	-0.052280	0.333938	0.148997	0.344773	-1.546485	-1.404045	3.453153	0.000000000	0.000000000	0.000000	0.000000	0.000000	0.000000	
44840	0.310556	-0.253389	9.790087	0.000965	-0.011057	-0.041613	0.330753	0.149365	0.344333	-1.542367	-1.409471	3.435949	0.000000000	0.000000000	0.000000	0.000000	0.000000	0.000000	
44841	0.216742	-0.281485	9.768380	0.000164	0.001474	-0.016631	0.334905	0.149573	0.345136	-1.538937	-1.408592	3.430272	0.000000000	0.000000000	0.000000	0.000000	0.000000	0.000000	
44842	0.215515	-0.271843	9.780397	0.002836	-0.000274	-0.037842	0.329982	0.149522	0.342366	-1.533966	-1.408820	3.414243	0.000000000	0.000000000	0.000000	0.000000	0.000000	0.000000	
44843	0.288242	-0.233960	9.797001	0.019061	-0.007887	-0.040979	0.333705	0.149661	0.344973	-1.521222	-1.412725	3.397061	0.000000000	0.000000000	0.000000	0.000000	0.000000	0.000000	
44844	0.356621	-0.181615	9.813070	0.041660	-0.008396	-0.048694	0.331792	0.150132	0.343502	-1.497587	-1.416960	3.377161	0.000000000	0.000000000	0.000000	0.000000	0.000000	0.000000	
44845	0.463202	-0.192155	9.782842	0.032267	-0.017039	-0.076875	0.333057	0.150307	0.346047	-1.478063	-1.425784	3.342953	0.000000000	0.000000000	0.000000	0.000000	0.000000	0.000000	
44846	0.467882	-0.379750	9.773462	0.034732	-0.029698	-0.087200	0.331671	0.151590	0.343542	-1.457276	-1.440641	3.303026	0.000000000	0.000000000	0.000000	0.000000	0.000000	0.000000	
44847	0.257675	-0.503028	9.773299	0.027028	0.001219	-0.084849	0.333093	0.150444	0.345912	-1.440273	-1.440903	3.264790	0.000000000	0.000000000	0.000000	0.000000	0.000000	0.000000	
44848	0.043123	-0.527664	9.794603	0.029023	0.028199	-0.068592	0.331822	0.149586	0.343800	-1.422415	-1.427879	3.237487	0.000000000	0.000000000	0.000000	0.000000	0.000000	0.000000	
44849	-0.055635	-0.471495	9.833183	0.012314	0.027476	-0.030424	0.332523	0.150347	0.345975	-1.413264	-1.414766	3.224926	0.000000000	0.000000000	0.000000	0.000000	0.000000	0.000000	
44850	-0.018913	-0.399647	9.852546	0.012134	0.015581	-0.006106	0.331316	0.150314	0.343164	-1.404221	-1.407019	3.223437	0.000000000	0.000000000	0.000000	0.000000	0.000000	0.000000	
44851	0.111930	-0.350258	9.840077	0.007406	0.002934	0.011328	0.333493	0.150332	0.345042	-1.398001	-1.404992	3.231100	0.000000000	0.000000000	0.000000	0.000000	0.000000	0.000000	
44852	0.223470	-0.300712	9.825153	0.020616	0.005344	0.007722	0.330822	0.150147	0.344434	-1.385073	-1.401971	3.237041	0.000000000	0.000000000	0.000000	0.000000	0.000000	0.000000	
44853	0.272024	-0.277104	9.797313	0.021169	-0.000998	0.007837	0.333757	0.150820	0.345449	-1.372271	-1.401871	3.243084	0.000000000	0.000000000	0.000000	0.000000	0.000000	0.000000	
44854	0.268302	-0.219403	9.765295	0.025042	0.013395	0.004659	0.330940	0.150732	0.343225	-1.357192	-1.395044	3.247120	0.000000000	0.000000000	0.000000	0.000000	0.000000	0.000000	
44855	0.224043	-0.163758	9.742709	0.010717	0.010144	0.002704	0.332981	0.150377	0.344840	-1.349282	-1.389693	3.250586	0.000000000	0.000000000	0.000000	0.000000	0.000000	0.000000	
44856	0.210222	-0.141983	9.760436	0.011374	0.010116	0.004584	0.330992	0.152699	0.343394	-1.340728	-1.384434	3.252693	0.000000000	0.000000000	0.000000	0.000000	0.000000	0.000000	
44857	0.173147	-0.177748	9.753238	0.019648	0.011727	0.003903	0.334599	0.150772	0.345298	-1.328513	-1.378286	3.256713	0.000000000	0.000000000	0.000000	0.000000	0.000000	0.000000	
44858	0.173339	-0.201825	9.726477	0.003452	0.006713	0.001736	0.332659	0.150472	0.343466	-1.323709	-1.374685	3.263798	0.000000000	0.000000000	0.000000	0.000000	0.000000	0.000000	
44859	0.181665	-0.213907	9.734817	-0.006456	-0.000303	0.005833	0.334742	0.150293	0.346669	-1.323966	-1.374221	3.268871	0.000000000	0.000000000	0.000000	0.000000	0.000000	0.000000	
44860	0.139017	-0.158203	9.775674	0.002784	-0.014951	-0.001836	0.332231	0.151431	0.343359	-1.319445	-1.381000	3.269113	0.000000000	0.000000000	0.000000	0.000000	0.000000	0.000000	
44861	0.165540	-0.059852	9.767018	-0.002087	-0.023006	0.004723	0.332559	0.152100	0.345224	-1.317525	-1.391331	3.273902	0.000000000	0.000000000	0.000000	0.000000	0.000000	0.000000	
44862	0.297831	-0.032135	9.737680	0.011682	-0.029603	-0.006836	0.332335	0.151158	0.343387	-1.308702	-1.405159	3.273741	0.000000000	0.000000000	0.000000	0.000000	0.000000	0.000000	
44863	0.423430	-0.131776	9.726782	-0.018529	-0.028766	-0.023487	0.334026	0.150210	0.344191	-1.314203	-1.418638	3.265122	0.000000000	0.000000000	0.000000	0.000000	0.000000	0.000000	
44864	0.369620	-0.138480	9.780730	-0.004135	-0.019118	-0.033285	0.332571	0.151684	0.343125	-1.312616	-1.427750	3.251450	0.000000000	0.000000000	0.000000	0.000000	0.000000	0.000000	
44865	0.246819	-0.120640	9.767555	-0.003479	-0.010983	-0.035076	0.333968	0.150876	0.344148	-1.310717	-1.432914	3.237103	0.000000000	0.000000000	0.000000	0.000000	0.000000	0.000000	
44866	0.263601	-0.118414	9.733210	0.004018	-0.022015	-0.034888	0.330400	0.151623	0.342046	-1.305215	-1.443426	3.222102	0.000000000	0.000000000	0.000000	0.000000	0.000000	0.000000	
44867	0.277679	-0.147366	9.749557	0.000011	-0.022798	-0.039013	0.334278	0.150950	0.344848	-1.301539	-1.454290	3.206001	0.000000000	0.000000000	0.000000	0.000000	0.000000	0.000000	
44868	0.319228	-0.092372	9.784105	-0.002781	-0.018021	-0.070902	0.332177	0.151671	0.343870	-1.298839	-1.463283	3.176087	0.000000000	0.000000000	0.000000	0.000000	0.000000	0.000000	
44869	0.378663	-0.027934	9.796619	0.006498	-0.005609	-0.067923	0.334002	0.151521	0.344384	-1.291591	-1.466322	3.145993	0.000000000	0.000000000	0.000000	0.000000	0.000000	0.000000	
44870	0.528664	-0.048450	9.769473	0.023679	-0.027385	-0.125672	0.331910	0.153308	0.343218	-1.275579	-1.480362	3.087412	0.000000000	0.000000000	0.000000	0.000000	0.000000	0.000000	
44871	0.579048	-0.154622	9.807365	0.018804	-0.021670	-0.155104	0.333784	0.152317	0.344579	-1.261288	-1.492185	3.015861	0.000000000	0.000000000	0.000000	0.000000	0.000000	0.000000	
44872	0.376737	-0.172123	9.849695	0.033116	0.006757	-0.129085	0.330788	0.153462	0.341735	-1.240701	-1.489930	2.957059	0.000000000	0.000000000	0.000000	0.000000	0.000000	0.000000	
44873	0.205537	-0.156377	9.754956	0.038362	0.017537	-0.137478	0.333153	0.154203	0.344662	-1.217248	-1.482829	2.893515	0.000000000	0.000000000	0.000000	0.000000	0.000000	0.000000	
44874	0.222599	-0.300826	9.718022	0.033413	0.008578	-0.130860	0.330140	0.154108	0.342809	-1.196507	-1.479677	2.833531	0.000000000	0.000000000	0.000000	0.000000	0.000000	0.000000	
44875	0.203555	-0.459283	9.785926	0.015497	0.009014	-0.131454	0.331510	0.154228	0.343780	-1.184182	-1.476511	2.772956	0.000000000	0.000000000	0.000000	0.000000	0.000000	0.000000	
44876	0.118998	-0.482555	9.845668	0.010276	0.020790	-0.114257	0.328991	0.154465	0.342506	-1.174698	-1.467338	2.720635	0.000000000	0.000000000	0.000000	0.000000	0.000000	0.000000	
44877	-0.031676	-0.519750	9.862925	0.007540	0.019666	-0.066078	0.331695	0.154404	0.342734	-1.167193	-1.458279	2.691177	0.000000000	0.000000000	0.000000	0.000000	0.000000	0.000000	
44878	-0.116198	-0.437282	9.874165	-0.004743	0.019818	-0.040811	0.329467	0.155900	0.342229	-1.165787	-1.448843	2.672981	0.000000000	0.000000000	0.000000	0.000000	0.000000	0.000000	
44879	-0.047566	-0.375406	9.814878	0.014218	0.012840	-0.009418	0.332019	0.155335	0.342197	-1.155928	-1.442258	2.670644	0.000000000	0.000000000	0.000000	0.000000	0.000000	0.000000	
44880	0.068721	-0.328303	9.800555	-0.002916	0.008624	0.009871	0.331049	0.155994	0.340973	-1.154265	-1.437675	2.678723	0.000000000	0.000000000	0.000000	0.000000	0.000000	0.000000	
44881	0.137550	-0.290396	9.809365	0.002839	-0.012330	0.012585	0.331465	0.155452	0.343179	-1.150184	-1.442796	2.687135	0.000000000	0.000000000	0.000000	0.000000	0.000000	0.000000	
44882	0.166642	-0.271438	9.779042	0.003414	-0.008790	0.023432	0.330246	0.154944	0.341851	-1.145667	-1.446397	2.701446	0.000000000	0.000000000	0.000000	0.000000	0.000000	0.000000	
44883	0.144725	-0.223175	9.771451	0.002876	-0.001585	0.030490	0.330862	0.155600	0.343622	-1.141814	-1.446160	2.718303	0.000000000	0.000000000	0.000000	0.000000	0.000000	0.000000	
44884	0.160952	-0.170410	9.773585	0.007294	-0.006206	0.029309	0.329688	0.155486	0.342279	-1.135514	-1.448474	2.733477	0.000000000	0.000000000	0.000000	0.000000	0.000000	0.000000	
44885	0.200271	-0.149093	9.778619	-0.002978	-0.007777	0.031522	0.332108	0.155987	0.344695	-1.134442	-1.451144	2.750884	0.000000000	0.000000000	0.000000	0.000000	0.000000	0.000000	
44886	0.264557	-0.140013	9.777084	-0.009559	-0.004882	0.027922	0.330715	0.154806	0.341390	-1.136174	-1.452841	2.767937	0.000000000	0.000000000	0.000000	0.000000	0.000000	0.000000	
44887	0.297954	-0.099438	9.757066	-0.010857	0.003209	0.041180	0.332141	0.154851	0.343698	-1.138922	-1.450204	2.789850	0.000000000	0.000000000	0.000000	0.000000	0.000000	0.000000	
44888	0.325388	-0.070788	9.780053	-0.010924	-0.003928	0.025026	0.331149	0.155586	0.343529	-1.141270	-1.451471	2.803105	0.000000000	0.000000000	0.000000	0.000000	0.000000	0.000000	
44889	0.407169	-0.138843	9.736864	-0.008401	-0.003873	0.005617	0.330989	0.155716	0.343766	-1.142351	-1.452639	2.808104	0.000000000	0.000000000	0.000000	0.000000	0.000000	0.000000	
44890	0.370998	-0.169749	9.780865	-0.013397	0.008155	-0.020313	0.330196	0.154812	0.339464	-1.145329	-1.448569	2.801266	0.000000000	0.000000000	0.000000	0.000000	0.000000	0.000000	
44891	0.287032	-0.205078	9.813910	-0.009505	0.001759	-0.025146	0.331298	0.154899	0.343849	-1.146556	-1.447403	2.791524	0.000000000	0.000000000	0.000000	0.000000	0.000000	0.000000	
44892	0.243585	-0.223963	9.803492	-0.018109	0.018306	-0.035415	0.328342	0.155754	0.341424	-1.151600	-1.438632	2.774554	0.000000000	0.000000000	0.000000	0.000000	0.000000	0.000000	
44893	0.230009	-0.252721	9.787132	-0.015093	0.012795	-0.033168	0.331668	0.155415	0.343606	-1.155425	-1.432272	2.760875	0.000000000	0.000000000	0.000000	0.000000	0.000000	0.000000	
44894	0.241694	-0.262413	9.808064	0.005724	-0.003987	-0.033825	0.329557	0.154906	0.340966	-1.149117	-1.434129	2.749296	0.000000000	0.000000000	0.000000	0.000000	0.000000	0.000000	
44895	0.184230	-0.285997	9.790991	-0.001406	0.021447	-0.024165	0.331886	0.155427	0.343103	-1.146565	-1.423532	2.739836	0.000000000	0.000000000	0.000000	0.000000	0.000000	0.000000	
44896	0.178654	-0.261893	9.802474	0.005742	0.009544	-0.028523	0.329430	0.156489	0.341132	-1.140310	-1.418877	2.726733	0.000000000	0.000000000	0.000000	0.000000	0.000000	0.000000	
44897	0.121034	-0.239735	9.836517	0.010819	0.009404	-0.026049	0.331508	0.154819	0.345075	-1.131938	-1.413983	2.716487	0.000000000	0.000000000	0.000000	0.000000	0.000000	0.000000	
44898	0.169324	-0.184834	9.837871	0.000939	0.015919	-0.016646	0.329634	0.154109	0.343406	-1.128117	-1.406171	2.714195	0.000000000	0.000000000	0.000000	0.000000	0.000000	0.000000	
44899	0.060270	-0.174251	9.887242	0.008377	0.044609	-0.006839	0.331419	0.154332	0.344426	-1.121116	-1.384204	2.712790	0.000000000	0.000000000	0.000000	0.000000	0.000000	0.000000	
44900	0.198460	-0.218768	9.812348	0.002257	0.048253	0.013926	0.329885	0.155576	0.342831	-1.117012	-1.360670	2.719922	0.000000000	0.000000000	0.000000	0.000000	0.000000	0.000000	
44901	0.089152	-0.174681	9.720660	0.010954	0.049840	0.016855	0.331411	0.154966	0.344922	-1.109046	-1.335929	2.729785	0.000000000	0.000000000	0.000000	0.000000	0.000000	0.000000	
44902	-0.068689	-0.235848	9.749135	0.017927	0.071223	0.041042	0.329903	0.154308	0.341839	-1.097746	-1.301183	2.753010	0.000000000	0.000000000	0.000000	0.000000	0.000000	0.000000	
44903	0.295494	-0.248515	9.737099	-0.006904	0.042649	0.081986	0.331283	0.153959	0.344162	-1.099032	-1.279210	2.794043	0.000000000	0.000000000	0.000000	0.000000	0.000000	0.000000	
44904	0.277780	-0.234018	9.669192	-0.022503	0.008707	0.077361	0.329040	0.155241	0.342737	-1.107419	-1.273973	2.830826	0.000000000	0.000000000	0.000000	0.000000	0.000000	0.000000	
44905	0.245853	-0.243286	9.742949	-0.023987	0.009655	0.075356	0.331565	0.154070	0.344194	-1.116815	-1.267841	2.868996	0.000000000	0.000000000	0.000000	0.000000	0.000000	0.000000	
44906	0.204083	-0.228398	9.842238	-0.029814	0.017972	0.068212	0.328603	0.153434	0.342509	-1.128586	-1.258254	2.905091	0.000000000	0.000000000	0.000000	0.000000	0.000000	0.000000	
44907	0.147654	-0.254363	9.854480	-0.030799	0.023363	0.077934	0.331671	0.153372	0.344775	-1.141274	-1.245516	2.944360	0.000000000	0.000000000	0.000000	0.000000	0.000000	0.000000	
44908	0.182605	-0.170566	9.795799	-0.026500	0.007059	0.066007	0.330713	0.155396	0.342685	-1.151429	-1.241145	2.976287	0.000000000	0.000000000	0.000000	0.000000	0.000000	0.000000	
44909	0.327298	-0.013097	9.780372	-0.003115	-0.004297	0.054852	0.331089	0.153526	0.345088	-1.150580	-1.241859	3.004795	0.000000000	0.000000000	0.000000	0.000000	0.000000	0.000000	
44910	0.588965	0.032809	9.779687	-0.001739	-0.016693	0.004795	0.330301	0.153978	0.342572	-1.148284	-1.249411	3.010901	0.000000000	0.000000000	0.000000	0.000000	0.000000	0.000000	
44911	0.659657	-0.037504	9.783729	-0.000381	-0.025438	-0.050689	0.333050	0.154476	0.344634	-1.144898	-1.261520	2.989223	0.000000000	0.000000000	0.000000	0.000000	0.000000	0.000000	
44912	0.419556	0.022219	9.797026	-0.015748	0.005729	-0.058433	0.329886	0.153958	0.343447	-1.148623	-1.258973	2.963800	0.000000000	0.000000000	0.000000	0.000000	0.000000	0.000000	
44913	0.276832	0.006491	9.720465	0.005527	-0.001767	-0.100491	0.330677	0.152190	0.345899	-1.141738	-1.260353	2.918116	0.000000000	0.000000000	0.000000	0.000000	0.000000	0.000000	
44914	0.258774	-0.084746	9.703453	0.008304	-0.003758	-0.081194	0.330258	0.155584	0.342217	-1.133742	-1.262546	2.880841	0.000000000	0.000000000	0.000000	0.000000	0.000000	0.000000	
44915	0.219536	-0.170918	9.756720	0.002607	0.003620	-0.082893	0.331750	0.154329	0.344072	-1.128388	-1.261195	2.843508	0.000000000	0.000000000	0.000000	0.000000	0.000000	0.000000	
44916	0.151416	-0.247255	9.789297	-0.012444	0.021136	-0.077843	0.329042	0.153842	0.341750	-1.130331	-1.251469	2.810717	0.000000000	0.000000000	0.000000	0.000000	0.000000	0.000000	
44917	0.113290	-0.232516	9.784463	-0.012440	0.005680	-0.063371	0.331478	0.153830	0.346317	-1.132405	-1.248894	2.782685	0.000000000	0.000000000	0.000000	0.000000	0.000000	0.000000	
44918	0.134156	-0.230274	9.794419	-0.006221	-0.010754	-0.062420	0.330125	0.154950	0.344355	-1.131548	-1.254246	2.755120	0.000000000	0.000000000	0.000000	0.000000	0.000000	0.000000	
44919	0.164425	-0.244943	9.803117	-0.002962	-0.003593	-0.063808	0.331223	0.155216	0.345415	-1.129123	-1.256058	2.726966	0.000000000	0.000000000	0.000000	0.000000	0.000000	0.000000	
44920	0.206856	-0.238066	9.818256	0.000091	0.005283	-0.049050	0.329762	0.155116	0.344166	-1.125386	-1.253627	2.705996	0.000000000	0.000000000	0.000000	0.000000	0.000000	0.000000	
44921	0.192362	-0.257189	9.811522	-0.006720	-0.010808	-0.051675	0.330189	0.155940	0.345506	-1.124922	-1.258758	2.683704	0.000000000	0.000000000	0.000000	0.000000	0.000000	0.000000	
44922	0.132485	-0.280753	9.794140	-0.006631	-0.009000	-0.051681	0.329016	0.156552	0.342931	-1.124368	-1.263168	2.659612	0.000000000	0.000000000	0.000000	0.000000	0.000000	0.000000	
44923	0.063974	-0.309045	9.785382	-0.007348	-0.003685	-0.030234	0.330929	0.155273	0.344710	-1.124496	-1.264618	2.647490	0.000000000	0.000000000	0.000000	0.000000	0.000000	0.000000	
44924	-0.015750	-0.255478	9.789899	-0.011095	0.005422	-0.025435	0.330171	0.156152	0.344033	-1.126345	-1.261899	2.639135	0.000000000	0.000000000	0.000000	0.000000	0.000000	0.000000	
44925	-0.011629	-0.183351	9.814840	-0.004349	-0.005836	0.015103	0.330353	0.155301	0.344897	-1.125536	-1.263794	2.648676	0.000000000	0.000000000	0.000000	0.000000	0.000000	0.000000	
44926	0.116323	-0.148366	9.801986	-0.017766	0.000767	0.024046	0.328779	0.156026	0.343192	-1.131093	-1.262832	2.661576	0.000000000	0.000000000	0.000000	0.000000	0.000000	0.000000	
44927	0.304238	-0.145157	9.772399	-0.005512	-0.011234	0.015031	0.331332	0.156435	0.344702	-1.130805	-1.267306	2.671133	0.000000000	0.000000000	0.000000	0.000000	0.000000	0.000000	
44928	0.415203	-0.131679	9.752489	-0.014317	-0.003671	-0.004181	0.329825	0.155942	0.343468	-1.134419	-1.268728	2.672247	0.000000000	0.000000000	0.000000	0.000000	0.000000	0.000000	
44929	0.391113	-0.092999	9.759203	-0.017040	-0.007089	-0.026130	0.330413	0.156635	0.344570	-1.139142	-1.271748	2.662115	0.000000000	0.000000000	0.000000	0.000000	0.000000	0.000000	
44930	0.349381	-0.131112	9.768435	-0.000181	-0.003781	-0.043640	0.329058	0.156564	0.342670	-1.135588	-1.273596	2.642672	0.000000000	0.000000000	0.000000	0.000000	0.000000	0.000000	
44931	0.266900	-0.149630	9.794395	-0.012061	0.007283	-0.030944	0.331444	0.156337	0.343926	-1.137841	-1.269868	2.630105	0.000000000	0.000000000	0.000000	0.000000	0.000000	0.000000	
44932	0.174387	-0.127219	9.794810	-0.003127	0.020675	-0.038830	0.328073	0.156365	0.342683	-1.135742	-1.259996	2.613672	0.000000000	0.000000000	0.000000	0.000000	0.000000	0.000000	
44933	0.186511	-0.127340	9.776896	-0.008668	0.016295	-0.039556	0.328989	0.155138	0.344726	-1.136241	-1.252025	2.596907	0.000000000	0.000000000	0.000000	0.000000	0.000000	0.000000	
44934	0.257000	-0.132754	9.761539	-0.014992	-0.008765	-0.056435	0.328228	0.154743	0.343187	-1.139631	-1.256375	2.575029	0.000000000	0.000000000	0.000000	0.000000	0.000000	0.000000	
44935	0.277239	-0.156936	9.788405	-0.022163	-0.003096	-0.068224	0.330253	0.155956	0.345115	-1.146243	-1.257976	2.544760	0.000000000	0.000000000	0.000000	0.000000	0.000000	0.000000	
44936	0.208024	-0.113062	9.803975	-0.002537	0.002689	-0.057522	0.327970	0.156637	0.342655	-1.143672	-1.256870	2.517581	0.000000000	0.000000000	0.000000	0.000000	0.000000	0.000000	
44937	0.244550	-0.034059	9.769812	-0.005682	0.002830	-0.067861	0.329444	0.155841	0.345810	-1.142334	-1.255649	2.487427	0.000000000	0.000000000	0.000000	0.000000	0.000000	0.000000	
44938	0.377168	-0.003921	9.757545	-0.012124	0.000398	-0.088488	0.327149	0.157582	0.343293	-1.144018	-1.255931	2.446384	0.000000000	0.000000000	0.000000	0.000000	0.000000	0.000000	
44939	0.474075	-0.009507	9.784466	-0.004135	-0.007800	-0.111610	0.330171	0.157043	0.344649	-1.141355	-1.260350	2.395444	0.000000000	0.000000000	0.000000	0.000000	0.000000	0.000000	
44940	0.559933	0.030643	9.775989	0.011798	-0.001724	-0.134655	0.326878	0.157945	0.341779	-1.131128	-1.262079	2.334041	0.000000000	0.000000000	0.000000	0.000000	0.000000	0.000000	
44941	0.577527	-0.024848	9.739240	0.009867	-0.005124	-0.162759	0.330543	0.157051	0.344035	-1.121103	-1.265931	2.258655	0.000000000	0.000000000	0.000000	0.000000	0.000000	0.000000	
44942	0.428662	-0.110176	9.729908	0.021021	0.012743	-0.172151	0.328615	0.159734	0.340721	-1.106072	-1.261076	2.179232	0.000000000	0.000000000	0.000000	0.000000	0.000000	0.000000	
44943	0.222955	-0.303173	9.771575	0.016870	0.014622	-0.167316	0.329392	0.157108	0.344410	-1.092677	-1.255581	2.101491	0.000000000	0.000000000	0.000000	0.000000	0.000000	0.000000	
44944	0.096823	-0.410301	9.789431	0.010028	0.027475	-0.171917	0.324721	0.159497	0.342607	-1.082913	-1.243655	2.020842	0.000000000	0.000000000	0.000000	0.000000	0.000000	0.000000	
44945	0.012195	-0.392727	9.822463	0.004103	0.018534	-0.164595	0.328559	0.158304	0.345299	-1.075821	-1.236124	1.944367	0.000000000	0.000000000	0.000000	0.000000	0.000000	0.000000	
44946	0.001194	-0.366146	9.857581	-0.000537	0.018516	-0.142750	0.325876	0.160713	0.343093	-1.071428	-1.228195	1.879057	0.000000000	0.000000000	0.000000	0.000000	0.000000	0.000000	
44947	0.035298	-0.313559	9.835237	-0.007737	0.035707	-0.115066	0.327719	0.159543	0.345388	-1.070628	-1.211874	1.826079	0.000000000	0.000000000	0.000000	0.000000	0.000000	0.000000	
44948	0.152663	-0.271284	9.811315	0.012512	0.023548	-0.130213	0.325066	0.160516	0.342864	-1.060159	-1.201422	1.767037	0.000000000	0.000000000	0.000000	0.000000	0.000000	0.000000	
44949	0.234118	-0.274395	9.787627	0.005367	-0.003499	-0.113916	0.326995	0.160259	0.345255	-1.053202	-1.203784	1.714959	0.000000000	0.000000000	0.000000	0.000000	0.000000	0.000000	
44950	0.165607	-0.285872	9.764297	0.004692	0.006494	-0.118578	0.324951	0.161122	0.344011	-1.046591	-1.201355	1.660888	0.000000000	0.000000000	0.000000	0.000000	0.000000	0.000000	
44951	0.091860	-0.193839	9.808541	0.001901	0.006516	-0.110902	0.326564	0.161643	0.344595	-1.041362	-1.198843	1.610160	0.000000000	0.000000000	0.000000	0.000000	0.000000	0.000000	
44952	0.079894	-0.155281	9.797339	-0.009026	-0.003308	-0.086262	0.323299	0.161699	0.342701	-1.041628	-1.200805	1.570444	0.000000000	0.000000000	0.000000	0.000000	0.000000	0.000000	
44953	0.030030	-0.222202	9.786040	0.006736	-0.001908	-0.082321	0.327164	0.161194	0.344830	-1.034386	-1.201958	1.533433	0.000000000	0.000000000	0.000000	0.000000	0.000000	0.000000	
44954	0.013122	-0.224490	9.764427	0.003123	-0.001901	-0.068428	0.322826	0.162263	0.342609	-1.029028	-1.203089	1.502816	0.000000000	0.000000000	0.000000	0.000000	0.000000	0.000000	
44955	-0.018623	-0.200197	9.750690	-0.005210	-0.001871	-0.038999	0.326637	0.161999	0.345249	-1.027949	-1.203704	1.486487	0.000000000	0.000000000	0.000000	0.000000	0.000000	0.000000	
44956	-0.004508	-0.173853	9.762250	0.003281	0.005071	-0.025300	0.324081	0.161043	0.341645	-1.022946	-1.201134	1.479591	0.000000000	0.000000000	0.000000	0.000000	0.000000	0.000000	
44957	0.111602	-0.184427	9.772150	-0.015915	-0.012556	-0.023278	0.326282	0.161614	0.345488	-1.027140	-1.206613	1.470857	0.000000000	0.000000000	0.000000	0.000000	0.000000	0.000000	
44958	0.198796	-0.156283	9.788150	-0.013566	-0.012591	-0.027443	0.323638	0.162761	0.342160	-1.030162	-1.212493	1.457832	0.000000000	0.000000000	0.000000	0.000000	0.000000	0.000000	
44959	0.198558	-0.180309	9.802682	-0.025519	-0.008662	-0.030883	0.326888	0.161766	0.344366	-1.038857	-1.216180	1.445433	0.000000000	0.000000000	0.000000	0.000000	0.000000	0.000000	
44960	0.164372	-0.184857	9.781299	-0.025318	-0.023169	-0.024480	0.324096	0.161983	0.341332	-1.047520	-1.227088	1.437732	0.000000000	0.000000000	0.000000	0.000000	0.000000	0.000000	
44961	0.189923	-0.151407	9.782163	-0.020728	-0.021268	-0.058945	0.326230	0.162880	0.344088	-1.053632	-1.237025	1.412045	0.000000000	0.000000000	0.000000	0.000000	0.000000	0.000000	
44962	0.240326	-0.120529	9.817806	-0.014559	-0.012449	-0.047363	0.324330	0.161483	0.342981	-1.056916	-1.243019	1.393049	0.000000000	0.000000000	0.000000	0.000000	0.000000	0.000000	
44963	0.300564	-0.106612	9.810898	-0.016723	-0.021351	-0.061984	0.325921	0.161998	0.343695	-1.061031	-1.253072	1.365914	0.000000000	0.000000000	0.000000	0.000000	0.000000	0.000000	
44964	0.357494	-0.104729	9.769502	-0.008735	-0.021508	-0.068083	0.322648	0.162852	0.344146	-1.061312	-1.263574	1.333409	0.000000000	0.000000000	0.000000	0.000000	0.000000	0.000000	
44965	0.363900	-0.167308	9.760506	-0.022869	-0.012131	-0.066447	0.326288	0.162297	0.345055	-1.068273	-1.269375	1.304064	0.000000000	0.000000000	0.000000	0.000000	0.000000	0.000000	
44966	0.253587	-0.226496	9.763413	-0.013290	-0.010698	-0.042676	0.324267	0.162439	0.344913	-1.070989	-1.274496	1.288156	0.000000000	0.000000000	0.000000	0.000000	0.000000	0.000000	
44967	0.137858	-0.256772	9.777830	-0.015888	0.006467	-0.029659	0.325825	0.163118	0.345083	-1.075043	-1.271083	1.276212	0.000000000	0.000000000	0.000000	0.000000	0.000000	0.000000	
44968	0.141536	-0.261581	9.805046	-0.016095	-0.010677	-0.034974	0.323836	0.163659	0.342404	-1.079180	-1.276126	1.260441	0.000000000	0.000000000	0.000000	0.000000	0.000000	0.000000	
44969	0.170446	-0.242555	9.833074	-0.015079	0.001846	-0.016923	0.325761	0.162937	0.343625	-1.083031	-1.274765	1.254620	0.000000000	0.000000000	0.000000	0.000000	0.000000	0.000000	
44970	0.198116	-0.290873	9.834100	-0.015921	0.002770	-0.017024	0.324693	0.163660	0.341323	-1.087273	-1.273230	1.249591	0.000000000	0.000000000	0.000000	0.000000	0.000000	0.000000	
44971	0.299810	-0.284537	9.808136	-0.012183	-0.000021	-0.019179	0.325236	0.163959	0.342441	-1.089788	-1.272807	1.242711	0.000000000	0.000000000	0.000000	0.000000	0.000000	0.000000	
44972	0.297706	-0.284522	9.805436	-0.001454	0.000575	-0.011428	0.322529	0.162911	0.343199	-1.087182	-1.272268	1.239126	0.000000000	0.000000000	0.000000	0.000000	0.000000	0.000000	
44973	0.220096	-0.238164	9.829670	-0.001009	-0.009296	-0.025725	0.325664	0.161631	0.345936	-1.084345	-1.276364	1.229207	0.000000000	0.000000000	0.000000	0.000000	0.000000	0.000000	
44974	0.162950	-0.252133	9.812649	0.006054	0.009386	-0.003304	0.324318	0.162543	0.342924	-1.078239	-1.271546	1.231928	0.000000000	0.000000000	0.000000	0.000000	0.000000	0.000000	
44975	0.161198	-0.271387	9.783214	0.002925	0.012233	-0.012737	0.326446	0.163401	0.343956	-1.073709	-1.265211	1.228017	0.000000000	0.000000000	0.000000	0.000000	0.000000	0.000000	
44976	0.172465	-0.261895	9.755473	0.010375	0.015630	-0.006351	0.324023	0.164300	0.342528	-1.065506	-1.257439	1.224998	0.000000000	0.000000000	0.000000	0.000000	0.000000	0.000000	
44977	0.158565	-0.242524	9.773188	0.005574	-0.004275	0.015594	0.326822	0.162257	0.345127	-1.060059	-1.258701	1.234763	0.000000000	0.000000000	0.000000	0.000000	0.000000	0.000000	
44978	0.145479	-0.196688	9.810498	0.003750	0.004828	0.012579	0.323650	0.163318	0.341601	-1.055220	-1.255919	1.244106	0.000000000	0.000000000	0.000000	0.000000	0.000000	0.000000	
44979	0.183304	-0.184987	9.805599	0.012108	-0.008936	0.012005	0.325242	0.163834	0.342315	-1.046619	-1.259409	1.252197	0.000000000	0.000000000	0.000000	0.000000	0.000000	0.000000	
44980	0.210180	-0.139534	9.799350	0.017849	-0.011766	0.008299	0.324878	0.163918	0.341202	-1.035007	-1.264589	1.258797	0.000000000	0.000000000	0.000000	0.000000	0.000000	0.000000	
44981	0.204567	-0.137097	9.786478	0.009402	0.008228	0.025911	0.324375	0.162767	0.343583	-1.027810	-1.259767	1.273378	0.000000000	0.000000000	0.000000	0.000000	0.000000	0.000000	
