Counter	Acc_X	Acc_Y	Acc_Z	Gyr_X	Gyr_Y	Gyr_Z	Mag_X	Mag_Y	Mag_Z	Roll	Pitch	Yaw	Latitude	Longitude	Altitude	Vel_X	Vel_Y	Vel_Z	
61064	0.314777	-0.007179	9.788703	-0.033893	0.044875	-0.106116	0.174917	0.313060	0.345175	0.702972	-1.635421	-3.348400	0.000000000	0.000000000	0.000000	0.000000	0.000000	0.000000	
61065	0.152039	-0.068513	9.806063	-0.014343	0.069379	-0.125002	0.169258	0.320399	0.336351	0.701494	-1.600925	-3.405454	0.000000000	0.000000000	0.000000	0.000000	0.000000	0.000000	
61066	0.138220	-0.261799	9.709084	-0.032217	0.061009	-0.096923	0.173121	0.314186	0.344836	0.690050	-1.569424	-3.449222	0.000000000	0.000000000	0.000000	0.000000	0.000000	0.000000	
61067	-0.100248	-0.320105	9.701837	-0.037187	0.048680	-0.065272	0.166661	0.320501	0.336064	0.676534	-1.544976	-3.477869	0.000000000	0.000000000	0.000000	0.000000	0.000000	0.000000	
61068	-0.184638	-0.090692	9.832124	-0.031012	0.050280	-0.014931	0.172661	0.313718	0.344252	0.664579	-1.519074	-3.481997	0.000000000	0.000000000	0.000000	0.000000	0.000000	0.000000	
61069	0.053503	0.043876	9.829685	-0.008266	0.026174	-0.007077	0.168550	0.319840	0.337461	0.664011	-1.505458	-3.482982	0.000000000	0.000000000	0.000000	0.000000	0.000000	0.000000	
61070	0.106439	0.017709	9.741733	-0.008479	0.007225	0.010042	0.173035	0.312605	0.347024	0.662507	-1.500251	-3.475146	0.000000000	0.000000000	0.000000	0.000000	0.000000	0.000000	
61071	0.073645	0.001236	9.681402	-0.024006	-0.000067	0.003317	0.166935	0.319484	0.337485	0.654216	-1.499095	-3.471312	0.000000000	0.000000000	0.000000	0.000000	0.000000	0.000000	
61072	0.009110	-0.036378	9.687430	-0.029318	-0.015626	0.033176	0.171864	0.314823	0.345804	0.642475	-1.504921	-3.453840	0.000000000	0.000000000	0.000000	0.000000	0.000000	0.000000	
61073	0.024601	-0.032477	9.718688	-0.033766	-0.024564	0.050565	0.168483	0.319535	0.338528	0.628822	-1.515534	-3.427569	0.000000000	0.000000000	0.000000	0.000000	0.000000	0.000000	
61074	0.128749	-0.006882	9.776289	-0.036715	-0.036839	0.067302	0.173611	0.312123	0.346339	0.613113	-1.531656	-3.392045	0.000000000	0.000000000	0.000000	0.000000	0.000000	0.000000	
61075	0.164214	0.084777	9.788389	-0.028395	-0.023359	0.064866	0.168000	0.318492	0.337567	0.601775	-1.541668	-3.358932	0.000000000	0.000000000	0.000000	0.000000	0.000000	0.000000	
61076	0.249640	0.284025	9.831561	-0.021362	-0.043784	0.033500	0.173837	0.312638	0.346485	0.593817	-1.560923	-3.340717	0.000000000	0.000000000	0.000000	0.000000	0.000000	0.000000	
61077	0.323299	0.299711	9.790205	-0.019598	-0.031545	0.025647	0.167950	0.320169	0.337749	0.587301	-1.574650	-3.326378	0.000000000	0.000000000	0.000000	0.000000	0.000000	0.000000	
61078	0.302226	0.230659	9.736227	-0.026811	-0.037551	0.011121	0.175415	0.313264	0.346975	0.577026	-1.590816	-3.318211	0.000000000	0.000000000	0.000000	0.000000	0.000000	0.000000	
61079	0.267949	0.129251	9.687766	-0.017783	-0.022686	0.027693	0.169049	0.319053	0.338774	0.571390	-1.600325	-3.302849	0.000000000	0.000000000	0.000000	0.000000	0.000000	0.000000	
61080	0.236383	0.068973	9.722461	-0.048080	-0.022010	0.033257	0.175117	0.312860	0.346148	0.550658	-1.609172	-3.284609	0.000000000	0.000000000	0.000000	0.000000	0.000000	0.000000	
61081	0.302774	-0.024274	9.774927	-0.043394	-0.021515	0.040269	0.171263	0.318796	0.338208	0.532560	-1.618162	-3.263228	0.000000000	0.000000000	0.000000	0.000000	0.000000	0.000000	
61082	0.405611	-0.168381	9.764002	-0.044534	-0.014776	0.063554	0.175270	0.311648	0.346094	0.513106	-1.623676	-3.230221	0.000000000	0.000000000	0.000000	0.000000	0.000000	0.000000	
61083	0.291136	-0.325608	9.758417	-0.043594	-0.008134	0.086172	0.169076	0.318499	0.338937	0.494042	-1.626501	-3.186845	0.000000000	0.000000000	0.000000	0.000000	0.000000	0.000000	
61084	0.161755	-0.375824	9.789933	-0.073822	-0.003025	0.134915	0.175157	0.311890	0.347129	0.459631	-1.626661	-3.120222	0.000000000	0.000000000	0.000000	0.000000	0.000000	0.000000	
61085	0.112510	-0.503079	9.778402	-0.069511	-0.018766	0.173373	0.170391	0.318167	0.337831	0.426635	-1.634735	-3.035223	0.000000000	0.000000000	0.000000	0.000000	0.000000	0.000000	
61086	-0.031995	-0.482171	9.827477	-0.082819	-0.010885	0.225420	0.176859	0.310576	0.344933	0.386683	-1.638873	-2.924584	0.000000000	0.000000000	0.000000	0.000000	0.000000	0.000000	
61087	-0.059331	-0.211657	9.936150	-0.067532	-0.019475	0.268992	0.172173	0.317456	0.337350	0.353014	-1.647236	-2.793898	0.000000000	0.000000000	0.000000	0.000000	0.000000	0.000000	
61088	0.109760	0.065057	9.958834	-0.070491	-0.053399	0.288441	0.178907	0.308849	0.346803	0.318036	-1.671712	-2.653303	0.000000000	0.000000000	0.000000	0.000000	0.000000	0.000000	
61089	0.252743	0.375349	9.866156	-0.069481	-0.047950	0.271458	0.173489	0.316571	0.339198	0.283433	-1.693443	-2.521502	0.000000000	0.000000000	0.000000	0.000000	0.000000	0.000000	
61090	0.180830	0.879155	9.876741	-0.027108	-0.019141	0.200858	0.180840	0.310177	0.346254	0.270312	-1.701217	-2.423125	0.000000000	0.000000000	0.000000	0.000000	0.000000	0.000000	
61091	0.929485	1.158134	9.747242	-0.011645	-0.044919	0.095270	0.174818	0.315823	0.338912	0.266453	-1.721217	-2.375483	0.000000000	0.000000000	0.000000	0.000000	0.000000	0.000000	
61092	1.147119	0.753553	9.522395	-0.023958	-0.072286	0.040555	0.180600	0.308526	0.346024	0.257093	-1.753990	-2.353734	0.000000000	0.000000000	0.000000	0.000000	0.000000	0.000000	
61093	0.555707	0.486116	9.560735	-0.053333	-0.012699	0.028904	0.174145	0.317254	0.339006	0.234656	-1.758841	-2.337727	0.000000000	0.000000000	0.000000	0.000000	0.000000	0.000000	
61094	0.239962	0.110364	9.679176	-0.062163	0.010680	0.021271	0.181537	0.308899	0.346556	0.207325	-1.751950	-2.324745	0.000000000	0.000000000	0.000000	0.000000	0.000000	0.000000	
61095	0.193345	-0.067380	9.813956	-0.067572	0.027244	0.024094	0.174645	0.315476	0.339832	0.178138	-1.737642	-2.310967	0.000000000	0.000000000	0.000000	0.000000	0.000000	0.000000	
61096	0.249294	-0.027591	9.904146	-0.059991	0.032071	0.032393	0.180777	0.308181	0.348330	0.151688	-1.720541	-2.293070	0.000000000	0.000000000	0.000000	0.000000	0.000000	0.000000	
61097	0.305378	0.129005	9.867942	-0.052317	0.039601	0.017264	0.174739	0.314950	0.340403	0.129893	-1.700290	-2.282554	0.000000000	0.000000000	0.000000	0.000000	0.000000	0.000000	
61098	0.369958	0.344325	9.774522	-0.036170	0.035898	-0.018248	0.181075	0.307871	0.347194	0.115543	-1.681297	-2.288368	0.000000000	0.000000000	0.000000	0.000000	0.000000	0.000000	
61099	0.572471	0.544053	9.762589	-0.015618	0.029099	-0.090880	0.173632	0.315074	0.339821	0.113071	-1.666072	-2.329535	0.000000000	0.000000000	0.000000	0.000000	0.000000	0.000000	
61100	0.659374	0.406931	9.727663	-0.030938	0.014342	-0.126310	0.179580	0.308694	0.347450	0.102712	-1.657275	-2.387656	0.000000000	0.000000000	0.000000	0.000000	0.000000	0.000000	
61101	0.381262	0.178728	9.678463	-0.029589	0.021157	-0.121681	0.172556	0.315782	0.340415	0.094155	-1.645984	-2.443550	0.000000000	0.000000000	0.000000	0.000000	0.000000	0.000000	
61102	0.130754	-0.117816	9.688803	-0.042030	0.017026	-0.096479	0.178746	0.307802	0.348289	0.078071	-1.635950	-2.486922	0.000000000	0.000000000	0.000000	0.000000	0.000000	0.000000	
61103	0.046086	-0.255299	9.774796	-0.040594	0.024525	-0.080079	0.174187	0.315300	0.341230	0.063514	-1.622956	-2.522944	0.000000000	0.000000000	0.000000	0.000000	0.000000	0.000000	
61104	0.045585	-0.209755	9.867269	-0.052184	0.008580	-0.060106	0.178329	0.308209	0.349933	0.042076	-1.616995	-2.549121	0.000000000	0.000000000	0.000000	0.000000	0.000000	0.000000	
61105	0.074560	-0.149455	9.851701	-0.049529	0.011398	-0.030927	0.171790	0.316471	0.340927	0.022434	-1.610144	-2.561675	0.000000000	0.000000000	0.000000	0.000000	0.000000	0.000000	
61106	0.233966	-0.102042	9.765738	-0.051516	-0.005250	-0.029348	0.178091	0.308117	0.350698	0.000898	-1.610809	-2.573128	0.000000000	0.000000000	0.000000	0.000000	0.000000	0.000000	
61107	0.311891	0.013645	9.761576	-0.052960	-0.026948	-0.016009	0.172847	0.315479	0.341939	-0.020629	-1.622266	-2.578557	0.000000000	0.000000000	0.000000	0.000000	0.000000	0.000000	
61108	0.340112	0.208915	9.785014	-0.036531	-0.030462	-0.032574	0.178174	0.307861	0.348993	-0.034963	-1.634978	-2.591447	0.000000000	0.000000000	0.000000	0.000000	0.000000	0.000000	
61109	0.439073	0.380669	9.798303	-0.037928	-0.040335	-0.056158	0.172961	0.315521	0.341157	-0.048564	-1.652914	-2.616048	0.000000000	0.000000000	0.000000	0.000000	0.000000	0.000000	
61110	0.621083	0.359874	9.768786	-0.046538	-0.044375	-0.095136	0.177810	0.307436	0.349486	-0.066802	-1.672306	-2.658887	0.000000000	0.000000000	0.000000	0.000000	0.000000	0.000000	
61111	0.559910	0.136018	9.745826	-0.048952	-0.045501	-0.131473	0.171887	0.315522	0.341518	-0.084430	-1.692976	-2.719454	0.000000000	0.000000000	0.000000	0.000000	0.000000	0.000000	
61112	0.140835	-0.013654	9.748673	-0.023759	0.003564	-0.146059	0.178170	0.309275	0.349460	-0.091051	-1.689538	-2.786550	0.000000000	0.000000000	0.000000	0.000000	0.000000	0.000000	
61113	-0.036391	-0.342513	9.758923	-0.034995	0.044631	-0.154942	0.172833	0.314619	0.340379	-0.101821	-1.667035	-2.858392	0.000000000	0.000000000	0.000000	0.000000	0.000000	0.000000	
61114	-0.025781	-0.471252	9.745564	-0.026398	0.030063	-0.094249	0.177081	0.308846	0.349971	-0.110456	-1.650921	-2.900815	0.000000000	0.000000000	0.000000	0.000000	0.000000	0.000000	
61115	-0.039880	-0.438401	9.821621	-0.030551	0.018098	-0.062419	0.171488	0.314937	0.340815	-0.120736	-1.640792	-2.928435	0.000000000	0.000000000	0.000000	0.000000	0.000000	0.000000	
61116	0.017393	-0.361411	9.819550	-0.028277	0.027660	-0.051302	0.177092	0.307861	0.350283	-0.130872	-1.625795	-2.949989	0.000000000	0.000000000	0.000000	0.000000	0.000000	0.000000	
61117	0.267380	-0.234665	9.774859	-0.014466	0.022559	-0.022255	0.171030	0.316030	0.341224	-0.134232	-1.613398	-2.958426	0.000000000	0.000000000	0.000000	0.000000	0.000000	0.000000	
61118	0.323871	-0.066319	9.836073	-0.000244	0.022357	-0.032824	0.176800	0.307887	0.350236	-0.131241	-1.600916	-2.971487	0.000000000	0.000000000	0.000000	0.000000	0.000000	0.000000	
61119	0.381282	-0.057864	9.799863	-0.009910	-0.005218	-0.041349	0.169669	0.315918	0.341810	-0.132210	-1.601853	-2.989012	0.000000000	0.000000000	0.000000	0.000000	0.000000	0.000000	
61120	0.258012	-0.160343	9.759110	-0.015830	0.002713	-0.029634	0.176230	0.308508	0.349717	-0.136706	-1.598747	-3.000789	0.000000000	0.000000000	0.000000	0.000000	0.000000	0.000000	
61121	0.126748	-0.094095	9.839195	-0.003307	0.017021	-0.015306	0.170031	0.314506	0.341799	-0.134951	-1.588977	-3.005898	0.000000000	0.000000000	0.000000	0.000000	0.000000	0.000000	
61122	0.168565	0.091054	9.854684	-0.007407	0.010792	-0.023100	0.175758	0.310016	0.349307	-0.135514	-1.582006	-3.014696	0.000000000	0.000000000	0.000000	0.000000	0.000000	0.000000	
61123	0.360640	0.219267	9.797475	-0.008179	0.002283	-0.062771	0.168496	0.315030	0.342062	-0.135344	-1.579318	-3.042464	0.000000000	0.000000000	0.000000	0.000000	0.000000	0.000000	
61124	0.430733	0.433130	9.807000	0.008642	0.012313	-0.088297	0.176083	0.308597	0.351286	-0.127390	-1.571692	-3.081425	0.000000000	0.000000000	0.000000	0.000000	0.000000	0.000000	
61125	0.627795	0.559018	9.760182	0.018746	0.014295	-0.168735	0.168732	0.315268	0.342754	-0.112632	-1.563545	-3.159824	0.000000000	0.000000000	0.000000	0.000000	0.000000	0.000000	
61126	0.809411	0.413181	9.647714	0.003910	0.003272	-0.212180	0.174360	0.310451	0.348930	-0.105334	-1.560332	-3.259007	0.000000000	0.000000000	0.000000	0.000000	0.000000	0.000000	
61127	0.642502	0.137502	9.625319	-0.008566	0.042754	-0.257255	0.167678	0.316828	0.342249	-0.102305	-1.538966	-3.379710	0.000000000	0.000000000	0.000000	0.000000	0.000000	0.000000	
61128	0.435455	-0.049383	9.787561	-0.024539	0.043222	-0.263165	0.173556	0.309573	0.350438	-0.107999	-1.516716	-3.502312	0.000000000	0.000000000	0.000000	0.000000	0.000000	0.000000	
61129	0.231654	-0.157841	9.906523	-0.010469	0.037257	-0.269276	0.166639	0.317265	0.342329	-0.105891	-1.498026	-3.628746	0.000000000	0.000000000	0.000000	0.000000	0.000000	0.000000	
61130	0.194139	-0.137332	9.918627	-0.013358	0.038179	-0.265204	0.171180	0.310044	0.349771	-0.106306	-1.478189	-3.753083	0.000000000	0.000000000	0.000000	0.000000	0.000000	0.000000	
61131	0.364172	-0.026131	9.921762	-0.017107	0.036862	-0.276506	0.164452	0.316968	0.343057	-0.107421	-1.459693	-3.882966	0.000000000	0.000000000	0.000000	0.000000	0.000000	0.000000	
61132	0.495953	-0.090099	9.790639	-0.016216	0.034353	-0.275434	0.169389	0.311031	0.349705	-0.109159	-1.441696	-4.012041	0.000000000	0.000000000	0.000000	0.000000	0.000000	0.000000	
61133	0.305732	-0.170234	9.755669	-0.001995	0.027392	-0.265332	0.163242	0.317896	0.341357	-0.103359	-1.427803	-4.136573	0.000000000	0.000000000	0.000000	0.000000	0.000000	0.000000	
61134	0.128269	-0.239954	9.790543	-0.003269	0.022950	-0.263748	0.168981	0.311438	0.350420	-0.099120	-1.415225	-4.259451	0.000000000	0.000000000	0.000000	0.000000	0.000000	0.000000	
61135	0.118440	-0.189764	9.857450	-0.003053	0.033455	-0.254738	0.162142	0.318735	0.341808	-0.094159	-1.398307	-4.378921	0.000000000	0.000000000	0.000000	0.000000	0.000000	0.000000	
61136	0.292686	-0.154856	9.841578	0.013880	0.018468	-0.232434	0.165526	0.311771	0.351316	-0.082157	-1.387817	-4.488086	0.000000000	0.000000000	0.000000	0.000000	0.000000	0.000000	
61137	0.194374	-0.217533	9.743329	0.012534	0.022836	-0.214660	0.158956	0.319174	0.342609	-0.070397	-1.375893	-4.588396	0.000000000	0.000000000	0.000000	0.000000	0.000000	0.000000	
61138	0.053779	-0.314158	9.712462	-0.002050	0.017281	-0.197866	0.165474	0.313441	0.349768	-0.066437	-1.365913	-4.679972	0.000000000	0.000000000	0.000000	0.000000	0.000000	0.000000	
61139	-0.016055	-0.347249	9.703194	-0.001576	0.012913	-0.173503	0.158697	0.320059	0.342261	-0.062146	-1.358522	-4.760612	0.000000000	0.000000000	0.000000	0.000000	0.000000	0.000000	
61140	-0.028264	-0.368821	9.745361	0.000769	0.014714	-0.124555	0.165330	0.311832	0.350616	-0.057695	-1.349718	-4.816806	0.000000000	0.000000000	0.000000	0.000000	0.000000	0.000000	
61141	-0.027842	-0.466756	9.706357	-0.003541	0.003929	-0.088233	0.158688	0.320059	0.343192	-0.055611	-1.346377	-4.856711	0.000000000	0.000000000	0.000000	0.000000	0.000000	0.000000	
61142	-0.258997	-0.532848	9.690332	-0.022861	0.013302	-0.032567	0.163109	0.312650	0.350889	-0.063483	-1.338201	-4.870550	0.000000000	0.000000000	0.000000	0.000000	0.000000	0.000000	
61143	-0.276344	-0.393082	9.717417	-0.013085	-0.010694	0.027363	0.156882	0.318634	0.342302	-0.067570	-1.341434	-4.855236	0.000000000	0.000000000	0.000000	0.000000	0.000000	0.000000	
61144	-0.110275	-0.096865	9.817606	-0.010604	-0.031408	0.044871	0.166133	0.311872	0.351808	-0.070460	-1.354563	-4.829762	0.000000000	0.000000000	0.000000	0.000000	0.000000	0.000000	
61145	0.207538	0.378457	9.952668	-0.001699	-0.012839	0.022743	0.158843	0.319969	0.340692	-0.068952	-1.358694	-4.816657	0.000000000	0.000000000	0.000000	0.000000	0.000000	0.000000	
61146	0.645095	0.433291	9.786652	0.011329	-0.029354	-0.022060	0.165989	0.311808	0.350190	-0.060615	-1.370880	-4.824551	0.000000000	0.000000000	0.000000	0.000000	0.000000	0.000000	
61147	0.518354	0.356209	9.628652	0.008635	-0.016443	-0.071120	0.158771	0.319803	0.341487	-0.052817	-1.377027	-4.856278	0.000000000	0.000000000	0.000000	0.000000	0.000000	0.000000	
61148	0.325215	0.114982	9.588231	0.010320	0.013042	-0.088959	0.164806	0.312189	0.350383	-0.044195	-1.368995	-4.896448	0.000000000	0.000000000	0.000000	0.000000	0.000000	0.000000	
61149	0.173513	-0.098179	9.684743	0.004745	0.009131	-0.078952	0.157083	0.318996	0.342052	-0.038161	-1.362935	-4.931926	0.000000000	0.000000000	0.000000	0.000000	0.000000	0.000000	
61150	0.087859	-0.132371	9.855913	-0.005936	0.003182	-0.082278	0.163872	0.312384	0.350358	-0.037384	-1.359601	-4.968757	0.000000000	0.000000000	0.000000	0.000000	0.000000	0.000000	
61151	0.218815	-0.022500	9.914727	0.011075	0.014422	-0.069930	0.156640	0.319242	0.341570	-0.028488	-1.350949	-4.999927	0.000000000	0.000000000	0.000000	0.000000	0.000000	0.000000	
61152	0.381718	-0.008902	9.814583	0.008866	0.003518	-0.070188	0.163134	0.311812	0.350798	-0.020788	-1.347444	-5.030774	0.000000000	0.000000000	0.000000	0.000000	0.000000	0.000000	
61153	0.367045	0.007901	9.768857	-0.002012	0.012792	-0.083477	0.157241	0.319197	0.341535	-0.017995	-1.339664	-5.068410	0.000000000	0.000000000	0.000000	0.000000	0.000000	0.000000	
61154	0.352086	0.060507	9.786415	0.015007	0.007784	-0.078341	0.163214	0.312969	0.349561	-0.007278	-1.334116	-5.103051	0.000000000	0.000000000	0.000000	0.000000	0.000000	0.000000	
61155	0.361289	0.004702	9.802165	0.005350	0.000177	-0.084199	0.155847	0.320201	0.341666	-0.000947	-1.332436	-5.141028	0.000000000	0.000000000	0.000000	0.000000	0.000000	0.000000	
61156	0.269262	-0.130166	9.775236	0.010673	0.008658	-0.063656	0.162431	0.313659	0.351932	0.007533	-1.326462	-5.169021	0.000000000	0.000000000	0.000000	0.000000	0.000000	0.000000	
61157	0.190284	-0.228380	9.769547	0.021392	0.020878	-0.036945	0.157593	0.321037	0.342440	0.020868	-1.314890	-5.184424	0.000000000	0.000000000	0.000000	0.000000	0.000000	0.000000	
61158	0.088552	-0.284715	9.794974	0.008881	0.012346	-0.018938	0.162337	0.312909	0.350621	0.027994	-1.307153	-5.190546	0.000000000	0.000000000	0.000000	0.000000	0.000000	0.000000	
61159	-0.019290	-0.295190	9.834253	0.009550	0.010700	0.017140	0.156906	0.320055	0.341709	0.034877	-1.300314	-5.180114	0.000000000	0.000000000	0.000000	0.000000	0.000000	0.000000	
61160	-0.028907	-0.300371	9.823241	0.009370	0.025599	0.036890	0.161596	0.314027	0.350052	0.041633	-1.286266	-5.160357	0.000000000	0.000000000	0.000000	0.000000	0.000000	0.000000	
61161	0.096610	-0.169476	9.793747	0.021114	0.018569	0.065606	0.155434	0.319755	0.341620	0.053358	-1.275559	-5.126771	0.000000000	0.000000000	0.000000	0.000000	0.000000	0.000000	
61162	0.213020	-0.097120	9.745941	0.025561	0.011807	0.104083	0.162796	0.313369	0.349476	0.067140	-1.268137	-5.073852	0.000000000	0.000000000	0.000000	0.000000	0.000000	0.000000	
61163	0.283971	-0.047716	9.752944	0.011962	0.005938	0.107561	0.157294	0.321624	0.342099	0.074008	-1.263522	-5.020231	0.000000000	0.000000000	0.000000	0.000000	0.000000	0.000000	
61164	0.179303	0.029886	9.817087	0.004696	0.028212	0.120845	0.163974	0.314125	0.351227	0.077667	-1.248292	-4.959679	0.000000000	0.000000000	0.000000	0.000000	0.000000	0.000000	
61165	0.250491	0.185817	9.909433	0.028282	0.029670	0.100822	0.156364	0.319137	0.342595	0.092493	-1.232352	-4.909261	0.000000000	0.000000000	0.000000	0.000000	0.000000	0.000000	
61166	0.417521	0.229651	9.878016	0.030861	0.032117	0.088626	0.163365	0.313456	0.350228	0.109006	-1.215257	-4.864513	0.000000000	0.000000000	0.000000	0.000000	0.000000	0.000000	
61167	0.386851	0.213250	9.761992	0.037615	0.049933	0.069741	0.156672	0.320102	0.341270	0.128780	-1.189775	-4.828912	0.000000000	0.000000000	0.000000	0.000000	0.000000	0.000000	
61168	0.296128	0.156824	9.706126	0.019251	0.060816	0.056265	0.165011	0.313119	0.350640	0.140104	-1.158967	-4.798440	0.000000000	0.000000000	0.000000	0.000000	0.000000	0.000000	
61169	0.216543	0.232716	9.768715	0.020287	0.061853	0.031174	0.157376	0.319254	0.342353	0.152131	-1.127802	-4.781233	0.000000000	0.000000000	0.000000	0.000000	0.000000	0.000000	
61170	0.315244	0.200884	9.757381	0.016184	0.042241	0.014452	0.163644	0.313138	0.349223	0.162410	-1.105820	-4.772087	0.000000000	0.000000000	0.000000	0.000000	0.000000	0.000000	
61171	0.261428	0.153352	9.696669	0.012487	0.043642	0.015705	0.157625	0.321182	0.340176	0.170974	-1.083400	-4.762282	0.000000000	0.000000000	0.000000	0.000000	0.000000	0.000000	
61172	0.242789	0.094981	9.708736	0.018479	0.061591	-0.012269	0.163905	0.313528	0.350311	0.182593	-1.052143	-4.765170	0.000000000	0.000000000	0.000000	0.000000	0.000000	0.000000	
61173	0.160051	0.047958	9.741553	0.009545	0.043531	0.001771	0.156551	0.319630	0.341272	0.189910	-1.029769	-4.762013	0.000000000	0.000000000	0.000000	0.000000	0.000000	0.000000	
61174	-0.034173	0.001552	9.764505	0.005613	0.044080	0.007457	0.162868	0.312267	0.349670	0.195217	-1.006903	-4.755805	0.000000000	0.000000000	0.000000	0.000000	0.000000	0.000000	
61175	-0.016194	-0.057751	9.786279	0.008945	0.051636	0.009739	0.157850	0.319859	0.340804	0.202140	-0.980530	-4.748826	0.000000000	0.000000000	0.000000	0.000000	0.000000	0.000000	
61176	0.013469	-0.067133	9.756114	0.006537	0.031939	0.031041	0.163582	0.314247	0.349828	0.207701	-0.963503	-4.731230	0.000000000	0.000000000	0.000000	0.000000	0.000000	0.000000	
61177	0.009658	-0.053936	9.741024	0.012713	0.015230	0.037351	0.157115	0.320847	0.342239	0.216141	-0.954454	-4.711123	0.000000000	0.000000000	0.000000	0.000000	0.000000	0.000000	
61178	0.013256	-0.040980	9.751250	0.003460	-0.002336	0.045058	0.163258	0.313406	0.348350	0.220128	-0.953821	-4.686982	0.000000000	0.000000000	0.000000	0.000000	0.000000	0.000000	
61179	0.045921	0.000593	9.789691	0.022449	0.004396	0.049574	0.157857	0.320290	0.341584	0.233082	-0.949881	-4.661057	0.000000000	0.000000000	0.000000	0.000000	0.000000	0.000000	
61180	0.115324	0.023949	9.774553	0.030628	-0.013102	0.043591	0.164430	0.314009	0.347845	0.250054	-0.954395	-4.637248	0.000000000	0.000000000	0.000000	0.000000	0.000000	0.000000	
61181	0.140819	0.060411	9.743895	0.017458	-0.008984	0.027293	0.158145	0.320963	0.340136	0.260803	-0.956787	-4.621990	0.000000000	0.000000000	0.000000	0.000000	0.000000	0.000000	
61182	0.152593	0.062238	9.769790	-0.000474	-0.021437	0.018450	0.164723	0.314552	0.348400	0.263123	-0.965234	-4.610579	0.000000000	0.000000000	0.000000	0.000000	0.000000	0.000000	
61183	0.156692	0.036053	9.745962	0.007011	-0.020172	0.016823	0.156338	0.318977	0.340469	0.268970	-0.972943	-4.600346	0.000000000	0.000000000	0.000000	0.000000	0.000000	0.000000	
61184	0.104751	0.037382	9.729364	0.011735	-0.028137	0.013895	0.163457	0.312922	0.349069	0.277153	-0.984580	-4.591443	0.000000000	0.000000000	0.000000	0.000000	0.000000	0.000000	
61185	0.072085	0.002211	9.749343	0.002222	-0.021337	0.034123	0.157354	0.320223	0.339511	0.280549	-0.992835	-4.572953	0.000000000	0.000000000	0.000000	0.000000	0.000000	0.000000	
61186	0.063327	-0.167429	9.735808	-0.006185	-0.012638	0.061733	0.164057	0.313585	0.349268	0.279776	-0.997186	-4.540841	0.000000000	0.000000000	0.000000	0.000000	0.000000	0.000000	
61187	-0.044321	-0.274695	9.714150	-0.019514	-0.034888	0.106655	0.157990	0.320339	0.340672	0.271997	-1.011968	-4.487743	0.000000000	0.000000000	0.000000	0.000000	0.000000	0.000000	
61188	-0.234632	-0.043750	9.849913	-0.018395	-0.017228	0.130105	0.165781	0.313845	0.349666	0.264804	-1.018656	-4.422632	0.000000000	0.000000000	0.000000	0.000000	0.000000	0.000000	
61189	0.269327	0.298503	9.955868	0.010149	-0.026606	0.107315	0.161348	0.319410	0.341651	0.271225	-1.029372	-4.369201	0.000000000	0.000000000	0.000000	0.000000	0.000000	0.000000	
61190	0.628029	0.289870	9.828029	0.017262	-0.042129	0.074255	0.166383	0.312808	0.349144	0.281516	-1.047830	-4.330974	0.000000000	0.000000000	0.000000	0.000000	0.000000	0.000000	
61191	0.434883	0.194759	9.705038	0.008847	-0.031597	0.045970	0.159784	0.319205	0.339280	0.287966	-1.061052	-4.306851	0.000000000	0.000000000	0.000000	0.000000	0.000000	0.000000	
61192	0.118806	0.057796	9.697175	0.006215	-0.006978	0.046373	0.165623	0.313920	0.348705	0.293212	-1.062668	-4.282751	0.000000000	0.000000000	0.000000	0.000000	0.000000	0.000000	
61193	-0.042624	-0.094026	9.743801	0.011960	0.003705	0.049857	0.160419	0.320028	0.340675	0.301063	-1.058953	-4.256688	0.000000000	0.000000000	0.000000	0.000000	0.000000	0.000000	
61194	-0.005676	-0.148405	9.787557	-0.011452	0.002434	0.089739	0.166845	0.313837	0.348505	0.297494	-1.056188	-4.210742	0.000000000	0.000000000	0.000000	0.000000	0.000000	0.000000	
61195	0.041517	-0.146358	9.808398	-0.019537	-0.012201	0.122830	0.160063	0.319602	0.340239	0.289529	-1.060134	-4.149869	0.000000000	0.000000000	0.000000	0.000000	0.000000	0.000000	
61196	0.030980	-0.119940	9.799737	-0.009629	-0.010157	0.151244	0.166693	0.311514	0.348320	0.286282	-1.063519	-4.075019	0.000000000	0.000000000	0.000000	0.000000	0.000000	0.000000	
61197	0.092217	-0.221562	9.759029	-0.012916	-0.012971	0.162512	0.161809	0.319162	0.340272	0.280969	-1.067837	-3.995195	0.000000000	0.000000000	0.000000	0.000000	0.000000	0.000000	
61198	0.019311	-0.157658	9.751907	-0.028535	-0.006707	0.186336	0.167940	0.312859	0.349257	0.268374	-1.069637	-3.903773	0.000000000	0.000000000	0.000000	0.000000	0.000000	0.000000	
61199	-0.056198	-0.089524	9.829628	-0.018674	-0.015505	0.198539	0.163020	0.319787	0.341236	0.259869	-1.075082	-3.806748	0.000000000	0.000000000	0.000000	0.000000	0.000000	0.000000	
61200	0.013542	-0.041162	9.829168	-0.023486	-0.011946	0.194256	0.170114	0.312304	0.348699	0.249600	-1.079369	-3.710778	0.000000000	0.000000000	0.000000	0.000000	0.000000	0.000000	
61201	0.073689	-0.016408	9.778737	-0.028490	-0.030552	0.202584	0.163287	0.317348	0.341389	0.236309	-1.091880	-3.611850	0.000000000	0.000000000	0.000000	0.000000	0.000000	0.000000	
61202	0.051867	0.088736	9.754078	-0.046420	-0.024194	0.228784	0.171698	0.312085	0.349229	0.214742	-1.102031	-3.499881	0.000000000	0.000000000	0.000000	0.000000	0.000000	0.000000	
61203	0.154426	0.151557	9.740936	-0.021773	-0.043339	0.221567	0.167401	0.318267	0.340808	0.204506	-1.120573	-3.391902	0.000000000	0.000000000	0.000000	0.000000	0.000000	0.000000	
61204	0.260567	0.185913	9.755005	-0.032180	-0.071437	0.227355	0.172430	0.311244	0.349251	0.189675	-1.153223	-3.281073	0.000000000	0.000000000	0.000000	0.000000	0.000000	0.000000	
61205	0.398027	0.223859	9.763481	-0.035977	-0.062784	0.199828	0.166301	0.317831	0.340519	0.172893	-1.181067	-3.183496	0.000000000	0.000000000	0.000000	0.000000	0.000000	0.000000	
61206	0.403830	0.225825	9.793455	-0.032157	-0.060986	0.166168	0.173550	0.309704	0.348435	0.158570	-1.208582	-3.101416	0.000000000	0.000000000	0.000000	0.000000	0.000000	0.000000	
61207	0.396004	0.142266	9.748511	-0.019335	-0.041631	0.126569	0.168040	0.317245	0.340025	0.150507	-1.226331	-3.038783	0.000000000	0.000000000	0.000000	0.000000	0.000000	0.000000	
61208	0.333889	0.083922	9.745099	-0.042489	-0.038852	0.130439	0.176078	0.310281	0.348548	0.131560	-1.243202	-2.973285	0.000000000	0.000000000	0.000000	0.000000	0.000000	0.000000	
61209	0.249160	0.044551	9.787396	-0.049213	-0.032132	0.144751	0.168926	0.315476	0.340247	0.109038	-1.256459	-2.901947	0.000000000	0.000000000	0.000000	0.000000	0.000000	0.000000	
61210	0.252617	0.086815	9.841448	-0.047877	-0.043436	0.126957	0.176405	0.309701	0.347828	0.087520	-1.275467	-2.838914	0.000000000	0.000000000	0.000000	0.000000	0.000000	0.000000	
61211	0.310125	0.125629	9.863697	-0.057755	-0.046140	0.121959	0.170257	0.316288	0.340956	0.061186	-1.295391	-2.778459	0.000000000	0.000000000	0.000000	0.000000	0.000000	0.000000	
61212	0.397560	0.137685	9.831459	-0.069239	-0.037730	0.115821	0.178415	0.308521	0.348735	0.029547	-1.311612	-2.719799	0.000000000	0.000000000	0.000000	0.000000	0.000000	0.000000	
61213	0.376303	0.144803	9.806755	-0.039990	-0.034399	0.083987	0.171722	0.314890	0.341254	0.012173	-1.325987	-2.677458	0.000000000	0.000000000	0.000000	0.000000	0.000000	0.000000	
61214	0.407132	0.166913	9.803555	-0.029321	-0.047762	0.061239	0.176599	0.307803	0.349009	0.000168	-1.346956	-2.646559	0.000000000	0.000000000	0.000000	0.000000	0.000000	0.000000	
61215	0.344371	0.131389	9.829289	-0.024242	-0.023242	0.034006	0.170652	0.314468	0.341634	-0.009045	-1.356092	-2.628083	0.000000000	0.000000000	0.000000	0.000000	0.000000	0.000000	
61216	0.248734	0.103259	9.836087	-0.023526	-0.027284	0.026890	0.177280	0.308639	0.349214	-0.017906	-1.367277	-2.612590	0.000000000	0.000000000	0.000000	0.000000	0.000000	0.000000	
61217	0.177904	0.059385	9.790168	-0.015054	-0.048994	0.031723	0.171593	0.313427	0.341699	-0.022657	-1.388692	-2.595199	0.000000000	0.000000000	0.000000	0.000000	0.000000	0.000000	
61218	0.182396	0.007135	9.729853	-0.022323	-0.029097	0.037853	0.178246	0.307750	0.349675	-0.031080	-1.400736	-2.574013	0.000000000	0.000000000	0.000000	0.000000	0.000000	0.000000	
61219	0.205732	0.030539	9.718363	-0.018535	-0.038276	0.038414	0.173493	0.315879	0.342424	-0.037567	-1.417001	-2.553425	0.000000000	0.000000000	0.000000	0.000000	0.000000	0.000000	
61220	0.238530	0.086239	9.769007	-0.012417	-0.042642	0.035703	0.177974	0.306515	0.350486	-0.041247	-1.435508	-2.533766	0.000000000	0.000000000	0.000000	0.000000	0.000000	0.000000	
61221	0.297237	0.002012	9.769361	0.003108	-0.038570	0.037952	0.172301	0.315261	0.341330	-0.037373	-1.451931	-2.513398	0.000000000	0.000000000	0.000000	0.000000	0.000000	0.000000	
61222	0.324749	-0.063863	9.702336	-0.023371	-0.026599	0.037752	0.177816	0.306590	0.349525	-0.046318	-1.462777	-2.492949	0.000000000	0.000000000	0.000000	0.000000	0.000000	0.000000	
61223	0.184367	-0.058349	9.771407	-0.013493	-0.033708	0.044542	0.172385	0.315719	0.341588	-0.050501	-1.476879	-2.469430	0.000000000	0.000000000	0.000000	0.000000	0.000000	0.000000	
61224	0.126704	-0.070048	9.800279	-0.013645	-0.014769	0.030071	0.179362	0.307349	0.350803	-0.054716	-1.482076	-2.452021	0.000000000	0.000000000	0.000000	0.000000	0.000000	0.000000	
61225	0.097099	0.026564	9.781883	-0.032761	-0.021158	0.032718	0.173647	0.315227	0.341147	-0.067970	-1.490091	-2.434155	0.000000000	0.000000000	0.000000	0.000000	0.000000	0.000000	
61226	-0.431187	0.334415	9.965560	-0.009636	0.016861	0.032166	0.180610	0.307980	0.349776	-0.070297	-1.480180	-2.415753	0.000000000	0.000000000	0.000000	0.000000	0.000000	0.000000	
61227	0.658230	0.004152	9.668608	-0.022525	-0.024888	0.026257	0.173337	0.313694	0.341966	-0.078459	-1.489881	-2.400973	0.000000000	0.000000000	0.000000	0.000000	0.000000	0.000000	
61228	0.496842	0.106296	9.615767	-0.011664	-0.046523	0.013376	0.179541	0.306850	0.349923	-0.081525	-1.510243	-2.392275	0.000000000	0.000000000	0.000000	0.000000	0.000000	0.000000	
61229	0.217135	0.126272	9.637239	-0.021591	-0.036032	-0.003456	0.174785	0.313134	0.341424	-0.088787	-1.525361	-2.391678	0.000000000	0.000000000	0.000000	0.000000	0.000000	0.000000	
61230	0.214350	0.136817	9.821850	-0.016795	-0.033684	-0.017162	0.181059	0.307164	0.348821	-0.093918	-1.539614	-2.396613	0.000000000	0.000000000	0.000000	0.000000	0.000000	0.000000	
61231	0.053662	0.293362	9.783772	-0.007955	-0.021393	-0.062807	0.174600	0.314755	0.340789	-0.093749	-1.547703	-2.424380	0.000000000	0.000000000	0.000000	0.000000	0.000000	0.000000	
61232	0.262093	0.560434	9.784871	0.038279	-0.015650	-0.133589	0.178862	0.306860	0.348749	-0.071077	-1.553425	-2.486142	0.000000000	0.000000000	0.000000	0.000000	0.000000	0.000000	
61233	0.793861	0.328454	9.723434	0.012799	-0.062388	-0.145962	0.172723	0.314439	0.341434	-0.059591	-1.581307	-2.553616	0.000000000	0.000000000	0.000000	0.000000	0.000000	0.000000	
61234	0.335750	0.101370	9.713727	-0.014642	-0.030451	-0.100545	0.179778	0.306380	0.350381	-0.062584	-1.594056	-2.598272	0.000000000	0.000000000	0.000000	0.000000	0.000000	0.000000	
61235	-0.008522	-0.081772	9.728852	-0.007874	0.004981	-0.088010	0.172556	0.314237	0.342881	-0.061706	-1.589665	-2.638104	0.000000000	0.000000000	0.000000	0.000000	0.000000	0.000000	
61236	0.176916	-0.225806	9.741012	-0.017688	-0.021739	-0.062281	0.178951	0.307463	0.349534	-0.066656	-1.598236	-2.665536	0.000000000	0.000000000	0.000000	0.000000	0.000000	0.000000	
61237	0.271562	-0.133612	9.829079	-0.013114	-0.031056	-0.052585	0.172470	0.314479	0.341126	-0.068876	-1.611005	-2.688425	0.000000000	0.000000000	0.000000	0.000000	0.000000	0.000000	
61238	0.337882	0.013763	9.906168	0.000551	-0.017742	-0.065050	0.179157	0.308678	0.350045	-0.065071	-1.617671	-2.716865	0.000000000	0.000000000	0.000000	0.000000	0.000000	0.000000	
61239	0.465478	0.082510	9.886607	0.007524	-0.019549	-0.082025	0.171731	0.315881	0.340811	-0.057000	-1.625046	-2.753823	0.000000000	0.000000000	0.000000	0.000000	0.000000	0.000000	
61240	0.418937	-0.002204	9.814642	0.009150	-0.025254	-0.090792	0.178257	0.309310	0.349739	-0.048732	-1.635303	-2.794818	0.000000000	0.000000000	0.000000	0.000000	0.000000	0.000000	
61241	0.364135	-0.074737	9.744034	0.008931	-0.018665	-0.095347	0.171271	0.316690	0.340967	-0.039828	-1.642331	-2.838141	0.000000000	0.000000000	0.000000	0.000000	0.000000	0.000000	
61242	0.342422	-0.174414	9.755645	0.004569	-0.013910	-0.099571	0.177248	0.310046	0.350742	-0.033617	-1.647162	-2.883386	0.000000000	0.000000000	0.000000	0.000000	0.000000	0.000000	
61243	0.303744	-0.377143	9.774622	-0.003296	-0.013162	-0.094375	0.170537	0.315694	0.341427	-0.030755	-1.651583	-2.926241	0.000000000	0.000000000	0.000000	0.000000	0.000000	0.000000	
61244	0.135369	-0.429743	9.844790	-0.015837	-0.020165	-0.066490	0.177979	0.309197	0.349034	-0.034734	-1.659389	-2.954615	0.000000000	0.000000000	0.000000	0.000000	0.000000	0.000000	
61245	-0.012259	-0.465320	9.864179	-0.019477	-0.018055	-0.017543	0.170288	0.315595	0.341391	-0.040968	-1.665972	-2.960760	0.000000000	0.000000000	0.000000	0.000000	0.000000	0.000000	
61246	-0.044667	-0.342534	9.860046	-0.010506	-0.018065	0.017020	0.177267	0.310330	0.349135	-0.043557	-1.672750	-2.950553	0.000000000	0.000000000	0.000000	0.000000	0.000000	0.000000	
61247	0.082016	-0.186549	9.799098	-0.012040	-0.022486	0.056425	0.170847	0.316943	0.340355	-0.047455	-1.681238	-2.921361	0.000000000	0.000000000	0.000000	0.000000	0.000000	0.000000	
61248	0.317183	-0.052919	9.762194	-0.021645	-0.029060	0.068612	0.178251	0.309164	0.349212	-0.056091	-1.693242	-2.885429	0.000000000	0.000000000	0.000000	0.000000	0.000000	0.000000	
61249	0.437722	0.066084	9.749063	-0.013750	-0.035403	0.051767	0.171587	0.315825	0.340924	-0.060740	-1.707961	-2.858452	0.000000000	0.000000000	0.000000	0.000000	0.000000	0.000000	
61250	0.388227	0.080289	9.791215	-0.001515	-0.030258	0.046295	0.177702	0.309369	0.348583	-0.059463	-1.720543	-2.834162	0.000000000	0.000000000	0.000000	0.000000	0.000000	0.000000	
61251	0.281221	0.032864	9.786752	-0.019183	-0.023394	0.061730	0.171432	0.316192	0.341947	-0.066814	-1.729555	-2.802432	0.000000000	0.000000000	0.000000	0.000000	0.000000	0.000000	
61252	0.199535	-0.060849	9.746637	-0.016898	-0.022622	0.092649	0.177932	0.309461	0.348748	-0.073559	-1.738460	-2.755704	0.000000000	0.000000000	0.000000	0.000000	0.000000	0.000000	
61253	0.207632	-0.130772	9.757357	-0.047880	-0.032783	0.122451	0.172470	0.315747	0.340137	-0.095565	-1.751841	-2.694957	0.000000000	0.000000000	0.000000	0.000000	0.000000	0.000000	
61254	0.211509	-0.087368	9.784693	-0.040151	-0.025416	0.121742	0.178683	0.308349	0.350117	-0.113859	-1.762027	-2.634022	0.000000000	0.000000000	0.000000	0.000000	0.000000	0.000000	
61255	0.277762	0.096077	9.803409	-0.027761	-0.020604	0.109097	0.171988	0.315703	0.341393	-0.126067	-1.769534	-2.579658	0.000000000	0.000000000	0.000000	0.000000	0.000000	0.000000	
61256	0.520689	0.256666	9.799201	-0.002000	-0.027894	0.057037	0.180118	0.308205	0.348756	-0.125207	-1.780949	-2.549290	0.000000000	0.000000000	0.000000	0.000000	0.000000	0.000000	
61257	0.710531	0.259584	9.792652	-0.016875	-0.030631	0.002757	0.173065	0.315279	0.341052	-0.130459	-1.793573	-2.545716	0.000000000	0.000000000	0.000000	0.000000	0.000000	0.000000	
61258	0.512750	0.223216	9.749435	-0.006050	-0.006421	-0.022800	0.179687	0.307752	0.348841	-0.130347	-1.794819	-2.554047	0.000000000	0.000000000	0.000000	0.000000	0.000000	0.000000	
61259	0.285722	0.180957	9.743720	0.006004	0.011913	-0.039173	0.173409	0.315136	0.341912	-0.123894	-1.787242	-2.570552	0.000000000	0.000000000	0.000000	0.000000	0.000000	0.000000	
61260	0.428169	0.094688	9.725932	0.001214	-0.000806	-0.086591	0.179963	0.307580	0.349292	-0.119365	-1.785871	-2.608866	0.000000000	0.000000000	0.000000	0.000000	0.000000	0.000000	
61261	0.371854	0.021899	9.786546	-0.014883	-0.000656	-0.061891	0.172206	0.315503	0.340505	-0.122499	-1.784384	-2.636211	0.000000000	0.000000000	0.000000	0.000000	0.000000	0.000000	
61262	0.124608	0.066165	9.785566	-0.018929	0.019020	-0.049987	0.180872	0.308216	0.347678	-0.128135	-1.773511	-2.656932	0.000000000	0.000000000	0.000000	0.000000	0.000000	0.000000	
61263	0.283947	0.185270	9.782432	0.015744	0.026068	-0.111617	0.172442	0.314749	0.340710	-0.115825	-1.759246	-2.708061	0.000000000	0.000000000	0.000000	0.000000	0.000000	0.000000	
61264	0.581793	0.262807	9.782946	0.008031	0.008864	-0.145019	0.177640	0.308925	0.349924	-0.107206	-1.753305	-2.775855	0.000000000	0.000000000	0.000000	0.000000	0.000000	0.000000	
61265	0.466128	0.185184	9.743228	0.010287	0.022486	-0.132144	0.170770	0.315086	0.343089	-0.097059	-1.740907	-2.836784	0.000000000	0.000000000	0.000000	0.000000	0.000000	0.000000	
61266	0.197868	0.161360	9.744256	0.016325	0.038593	-0.140388	0.176326	0.308827	0.349319	-0.084575	-1.720743	-2.901292	0.000000000	0.000000000	0.000000	0.000000	0.000000	0.000000	
61267	0.304254	0.136919	9.750983	0.015828	0.033144	-0.162917	0.170625	0.316014	0.341959	-0.071275	-1.703218	-2.976924	0.000000000	0.000000000	0.000000	0.000000	0.000000	0.000000	
61268	0.424611	0.140348	9.800964	0.032222	0.047900	-0.171355	0.176662	0.309245	0.349886	-0.050811	-1.678593	-3.055481	0.000000000	0.000000000	0.000000	0.000000	0.000000	0.000000	
61269	0.409644	0.114500	9.837894	0.015462	0.051729	-0.181862	0.169294	0.316477	0.341991	-0.037399	-1.652242	-3.140158	0.000000000	0.000000000	0.000000	0.000000	0.000000	0.000000	
61270	0.392473	0.093239	9.796659	0.010290	0.066598	-0.211441	0.174402	0.310042	0.348689	-0.026937	-1.618660	-3.238912	0.000000000	0.000000000	0.000000	0.000000	0.000000	0.000000	
61271	0.336351	0.016329	9.750209	0.012021	0.068176	-0.214806	0.167557	0.316632	0.340774	-0.014793	-1.584482	-3.339313	0.000000000	0.000000000	0.000000	0.000000	0.000000	0.000000	
61272	0.318384	-0.037659	9.742901	0.009804	0.075551	-0.207032	0.172440	0.309975	0.349310	-0.004742	-1.546586	-3.435616	0.000000000	0.000000000	0.000000	0.000000	0.000000	0.000000	
61273	0.284807	-0.078263	9.767619	0.004413	0.058779	-0.215878	0.167310	0.317102	0.341246	0.003608	-1.516879	-3.536512	0.000000000	0.000000000	0.000000	0.000000	0.000000	0.000000	
61274	0.241278	-0.103424	9.815378	0.006057	0.053074	-0.224640	0.173363	0.311479	0.350986	0.011986	-1.489685	-3.640268	0.000000000	0.000000000	0.000000	0.000000	0.000000	0.000000	
61275	0.196451	-0.174204	9.823971	-0.016908	0.039447	-0.214405	0.164380	0.317078	0.342375	0.009936	-1.469154	-3.740449	0.000000000	0.000000000	0.000000	0.000000	0.000000	0.000000	
61276	0.154075	-0.199286	9.823208	-0.032774	0.045700	-0.188792	0.171143	0.310591	0.348808	-0.000746	-1.445488	-3.828059	0.000000000	0.000000000	0.000000	0.000000	0.000000	0.000000	
61277	0.151583	-0.175308	9.842378	-0.011140	0.031534	-0.189271	0.164334	0.317902	0.340866	-0.000559	-1.428684	-3.916235	0.000000000	0.000000000	0.000000	0.000000	0.000000	0.000000	
61278	0.181651	-0.109487	9.780721	-0.023781	0.039572	-0.192904	0.169990	0.310986	0.349670	-0.006958	-1.407956	-4.005649	0.000000000	0.000000000	0.000000	0.000000	0.000000	0.000000	
61279	0.131618	-0.098344	9.737617	0.003695	0.034409	-0.185379	0.162857	0.317894	0.343691	0.000127	-1.389721	-4.091964	0.000000000	0.000000000	0.000000	0.000000	0.000000	0.000000	
61280	0.084281	-0.093897	9.736234	-0.003720	0.014706	-0.177421	0.169330	0.311994	0.348854	0.003076	-1.380858	-4.173887	0.000000000	0.000000000	0.000000	0.000000	0.000000	0.000000	
61281	0.055407	-0.113829	9.717792	-0.013953	0.016899	-0.180698	0.162061	0.317293	0.342792	0.001567	-1.370857	-4.257963	0.000000000	0.000000000	0.000000	0.000000	0.000000	0.000000	
61282	-0.001001	-0.177751	9.710258	-0.010162	0.010275	-0.152245	0.166958	0.313041	0.350423	0.001127	-1.364111	-4.328782	0.000000000	0.000000000	0.000000	0.000000	0.000000	0.000000	
61283	0.015306	-0.175962	9.702681	-0.006705	-0.003638	-0.127416	0.161121	0.318895	0.341505	0.002326	-1.363762	-4.387410	0.000000000	0.000000000	0.000000	0.000000	0.000000	0.000000	
61284	-0.026542	-0.190166	9.702001	-0.007484	-0.026141	-0.080689	0.166496	0.312289	0.349584	0.002350	-1.374403	-4.423062	0.000000000	0.000000000	0.000000	0.000000	0.000000	0.000000	
61285	-0.051033	-0.259280	9.713283	-0.025241	-0.032132	-0.046309	0.160805	0.319760	0.341548	-0.006381	-1.387476	-4.442951	0.000000000	0.000000000	0.000000	0.000000	0.000000	0.000000	
61286	-0.139747	-0.345390	9.759864	-0.001574	-0.049254	-0.009591	0.167216	0.311871	0.350517	-0.004345	-1.409154	-4.444459	0.000000000	0.000000000	0.000000	0.000000	0.000000	0.000000	
61287	-0.094976	-0.345427	9.765779	-0.008452	-0.049453	0.041650	0.160219	0.318959	0.340692	-0.006328	-1.430254	-4.422333	0.000000000	0.000000000	0.000000	0.000000	0.000000	0.000000	
61288	-0.044515	-0.270575	9.821215	-0.008587	-0.042701	0.021823	0.167929	0.311299	0.349193	-0.008015	-1.448801	-4.408945	0.000000000	0.000000000	0.000000	0.000000	0.000000	0.000000	
61289	0.144583	-0.146905	9.880427	0.009154	-0.026008	0.054987	0.161390	0.319285	0.341663	-0.001910	-1.458579	-4.380447	0.000000000	0.000000000	0.000000	0.000000	0.000000	0.000000	
61290	0.329186	-0.151310	9.797731	-0.005087	-0.038493	0.069223	0.168012	0.311758	0.349452	-0.002511	-1.475117	-4.344991	0.000000000	0.000000000	0.000000	0.000000	0.000000	0.000000	
61291	0.327807	-0.185867	9.683121	0.001605	-0.038253	0.090881	0.162645	0.317802	0.341665	-0.000580	-1.490809	-4.299345	0.000000000	0.000000000	0.000000	0.000000	0.000000	0.000000	
61292	0.232955	-0.253320	9.733781	-0.006449	-0.046292	0.117633	0.168743	0.311631	0.351438	-0.002459	-1.511071	-4.240527	0.000000000	0.000000000	0.000000	0.000000	0.000000	0.000000	
61293	-0.004072	-0.167024	9.816951	-0.020299	-0.055016	0.160594	0.163667	0.316651	0.341481	-0.012042	-1.534670	-4.161577	0.000000000	0.000000000	0.000000	0.000000	0.000000	0.000000	
61294	0.087310	0.257257	9.970705	-0.002644	-0.036809	0.168466	0.169320	0.310442	0.350519	-0.012801	-1.550388	-4.078499	0.000000000	0.000000000	0.000000	0.000000	0.000000	0.000000	
61295	0.783546	0.564682	9.878121	0.026360	-0.059754	0.076498	0.163927	0.317318	0.341094	0.001232	-1.576384	-4.039722	0.000000000	0.000000000	0.000000	0.000000	0.000000	0.000000	
61296	1.050853	0.495240	9.713792	0.022986	-0.056522	0.019376	0.171357	0.311244	0.349611	0.014619	-1.601534	-4.027179	0.000000000	0.000000000	0.000000	0.000000	0.000000	0.000000	
61297	0.644248	0.333351	9.684200	0.005444	-0.002982	-0.017541	0.164401	0.318922	0.341762	0.020187	-1.600840	-4.033326	0.000000000	0.000000000	0.000000	0.000000	0.000000	0.000000	
61298	0.296460	0.119789	9.706124	-0.002073	0.020443	-0.034934	0.171499	0.313560	0.348997	0.022329	-1.589235	-4.047570	0.000000000	0.000000000	0.000000	0.000000	0.000000	0.000000	
61299	0.132323	0.001686	9.801109	-0.007659	0.043260	-0.042999	0.162567	0.318758	0.340944	0.022012	-1.566420	-4.065870	0.000000000	0.000000000	0.000000	0.000000	0.000000	0.000000	
61300	0.187245	0.086151	9.891218	-0.018336	0.043934	-0.016612	0.170782	0.310735	0.349809	0.016142	-1.543602	-4.070659	0.000000000	0.000000000	0.000000	0.000000	0.000000	0.000000	
61301	0.466647	0.245900	9.857758	-0.000198	0.017117	-0.038214	0.163152	0.318283	0.341059	0.019425	-1.533318	-4.086681	0.000000000	0.000000000	0.000000	0.000000	0.000000	0.000000	
61302	0.474300	0.128426	9.710166	-0.022483	0.033431	-0.082836	0.168903	0.312394	0.349699	0.012414	-1.515506	-4.124513	0.000000000	0.000000000	0.000000	0.000000	0.000000	0.000000	
61303	0.240694	0.016635	9.703496	-0.010379	0.051285	-0.055083	0.163309	0.317924	0.341766	0.011082	-1.488981	-4.148589	0.000000000	0.000000000	0.000000	0.000000	0.000000	0.000000	
61304	0.175085	-0.084154	9.726341	-0.017064	0.044288	-0.056030	0.167467	0.312815	0.349583	0.006297	-1.465992	-4.173141	0.000000000	0.000000000	0.000000	0.000000	0.000000	0.000000	
61305	0.048791	-0.061652	9.833801	-0.010497	0.050434	-0.051533	0.161075	0.318167	0.340732	0.004789	-1.439781	-4.195523	0.000000000	0.000000000	0.000000	0.000000	0.000000	0.000000	
61306	0.102650	-0.067385	9.850646	-0.006463	0.059199	-0.050951	0.167650	0.312178	0.348976	0.004983	-1.409675	-4.216643	0.000000000	0.000000000	0.000000	0.000000	0.000000	0.000000	
61307	0.152890	-0.080454	9.779389	-0.011556	0.038741	-0.021927	0.162025	0.319393	0.341094	0.002547	-1.388971	-4.224886	0.000000000	0.000000000	0.000000	0.000000	0.000000	0.000000	
61308	0.163491	-0.079489	9.717514	-0.009112	0.026990	-0.003554	0.167049	0.311946	0.350487	0.000914	-1.374245	-4.224022	0.000000000	0.000000000	0.000000	0.000000	0.000000	0.000000	
61309	0.173892	-0.020960	9.726261	-0.024301	-0.004301	0.018624	0.162721	0.317830	0.341144	-0.008112	-1.374053	-4.212899	0.000000000	0.000000000	0.000000	0.000000	0.000000	0.000000	
61310	0.139950	0.008116	9.763186	-0.011621	-0.020801	0.012355	0.168495	0.313362	0.349190	-0.011126	-1.382145	-4.203974	0.000000000	0.000000000	0.000000	0.000000	0.000000	0.000000	
61311	0.224321	0.086537	9.793900	-0.015894	-0.032449	0.015381	0.162220	0.318056	0.341053	-0.016071	-1.395360	-4.194397	0.000000000	0.000000000	0.000000	0.000000	0.000000	0.000000	
61312	0.295976	0.084865	9.744958	-0.006599	-0.028599	-0.007582	0.167715	0.312629	0.349365	-0.016457	-1.407176	-4.195655	0.000000000	0.000000000	0.000000	0.000000	0.000000	0.000000	
61313	0.206279	-0.016237	9.689173	-0.029712	-0.030886	0.011600	0.162746	0.317983	0.341540	-0.027935	-1.419660	-4.187883	0.000000000	0.000000000	0.000000	0.000000	0.000000	0.000000	
61314	0.143135	-0.046317	9.719732	-0.043289	-0.035066	0.009650	0.167159	0.312127	0.349432	-0.046045	-1.434559	-4.180911	0.000000000	0.000000000	0.000000	0.000000	0.000000	0.000000	
61315	0.132057	-0.026567	9.776702	-0.027041	-0.037908	0.006580	0.161646	0.318822	0.341991	-0.056215	-1.450327	-4.175527	0.000000000	0.000000000	0.000000	0.000000	0.000000	0.000000	
61316	0.172369	-0.013403	9.772310	-0.026316	-0.056487	0.022930	0.168399	0.313042	0.349589	-0.066387	-1.475445	-4.161670	0.000000000	0.000000000	0.000000	0.000000	0.000000	0.000000	
61317	0.160552	0.038035	9.790282	-0.021666	-0.050920	0.014574	0.162982	0.318781	0.341009	-0.074081	-1.497368	-4.152456	0.000000000	0.000000000	0.000000	0.000000	0.000000	0.000000	
61318	0.390817	0.202156	9.808743	-0.007054	-0.075831	-0.015650	0.170273	0.311237	0.349172	-0.074582	-1.531743	-4.156128	0.000000000	0.000000000	0.000000	0.000000	0.000000	0.000000	
61319	0.489885	0.117056	9.751151	-0.021979	-0.064328	-0.027671	0.163122	0.317708	0.341612	-0.081773	-1.560230	-4.167081	0.000000000	0.000000000	0.000000	0.000000	0.000000	0.000000	
61320	0.364316	0.047240	9.739340	-0.025757	-0.058366	-0.032753	0.168875	0.311396	0.350272	-0.090974	-1.586279	-4.180785	0.000000000	0.000000000	0.000000	0.000000	0.000000	0.000000	
61321	0.317540	-0.085566	9.747598	-0.009532	-0.042087	-0.030449	0.164320	0.317757	0.341270	-0.092183	-1.604208	-4.193075	0.000000000	0.000000000	0.000000	0.000000	0.000000	0.000000	
61322	0.314440	-0.124857	9.820153	-0.025083	-0.051918	-0.029047	0.169012	0.312575	0.348643	-0.101102	-1.627178	-4.204434	0.000000000	0.000000000	0.000000	0.000000	0.000000	0.000000	
61323	0.289670	-0.102529	9.850980	-0.018843	-0.036310	-0.029989	0.162765	0.317990	0.341409	-0.106827	-1.642373	-4.216503	0.000000000	0.000000000	0.000000	0.000000	0.000000	0.000000	
61324	0.294035	-0.100461	9.851559	-0.011105	-0.019129	-0.032510	0.169232	0.312382	0.349486	-0.109017	-1.649693	-4.229197	0.000000000	0.000000000	0.000000	0.000000	0.000000	0.000000	
61325	0.331711	-0.086043	9.803013	-0.008809	-0.020067	-0.032175	0.163136	0.317854	0.341209	-0.109972	-1.657163	-4.242322	0.000000000	0.000000000	0.000000	0.000000	0.000000	0.000000	
61326	0.311909	-0.037605	9.790720	-0.012970	-0.029678	-0.029168	0.169986	0.311125	0.349397	-0.113096	-1.669517	-4.252898	0.000000000	0.000000000	0.000000	0.000000	0.000000	0.000000	
61327	0.315616	-0.021314	9.769326	-0.019757	-0.023117	0.000452	0.162352	0.318812	0.340375	-0.119738	-1.678438	-4.250434	0.000000000	0.000000000	0.000000	0.000000	0.000000	0.000000	
61328	0.296368	-0.050283	9.788651	-0.004540	-0.020580	-0.004574	0.169097	0.310496	0.350880	-0.119178	-1.686425	-4.250281	0.000000000	0.000000000	0.000000	0.000000	0.000000	0.000000	
61329	0.371044	-0.035837	9.803405	-0.007743	-0.016292	-0.008619	0.163289	0.318909	0.342383	-0.119974	-1.692133	-4.252155	0.000000000	0.000000000	0.000000	0.000000	0.000000	0.000000	
61330	0.337978	-0.014314	9.799061	-0.001097	-0.007449	-0.027501	0.170258	0.311092	0.349575	-0.117446	-1.693873	-4.262098	0.000000000	0.000000000	0.000000	0.000000	0.000000	0.000000	
61331	0.203206	-0.021922	9.829917	-0.004210	0.026788	-0.046048	0.162770	0.318136	0.341936	-0.116029	-1.679038	-4.281893	0.000000000	0.000000000	0.000000	0.000000	0.000000	0.000000	
61332	0.211589	-0.127648	9.777353	-0.012847	0.014326	-0.022943	0.169330	0.311717	0.350330	-0.119177	-1.670377	-4.290581	0.000000000	0.000000000	0.000000	0.000000	0.000000	0.000000	
61333	0.188520	-0.129202	9.754832	-0.010777	0.000876	0.003473	0.163717	0.318509	0.341538	-0.121668	-1.667810	-4.286695	0.000000000	0.000000000	0.000000	0.000000	0.000000	0.000000	
61334	0.201690	-0.087018	9.737155	0.001073	0.006354	0.006958	0.170062	0.310876	0.350352	-0.118587	-1.662925	-4.280142	0.000000000	0.000000000	0.000000	0.000000	0.000000	0.000000	
61335	0.221346	-0.052702	9.756830	0.000380	-0.009915	0.005088	0.163120	0.317424	0.341359	-0.115809	-1.665464	-4.275473	0.000000000	0.000000000	0.000000	0.000000	0.000000	0.000000	
61336	0.221095	-0.033131	9.773858	0.002885	-0.011349	0.012650	0.169538	0.311787	0.347166	-0.111942	-1.669027	-4.267149	0.000000000	0.000000000	0.000000	0.000000	0.000000	0.000000	
61337	0.218989	0.001814	9.754152	0.007029	-0.018485	0.011447	0.162209	0.317488	0.341476	-0.106076	-1.675613	-4.259435	0.000000000	0.000000000	0.000000	0.000000	0.000000	0.000000	
61338	0.237784	-0.059600	9.737090	-0.000276	-0.025157	0.021229	0.169023	0.311590	0.348956	-0.103841	-1.685763	-4.246913	0.000000000	0.000000000	0.000000	0.000000	0.000000	0.000000	
61339	0.131647	-0.170215	9.735098	0.000635	-0.018697	0.023133	0.162640	0.319209	0.340403	-0.101263	-1.692376	-4.233617	0.000000000	0.000000000	0.000000	0.000000	0.000000	0.000000	
61340	0.133380	-0.220338	9.727964	-0.016295	-0.022632	0.052230	0.170186	0.310925	0.350370	-0.107118	-1.701294	-4.205443	0.000000000	0.000000000	0.000000	0.000000	0.000000	0.000000	
61341	0.145705	-0.219657	9.773401	-0.025362	-0.050829	0.098699	0.163087	0.317548	0.340416	-0.118177	-1.723079	-4.156016	0.000000000	0.000000000	0.000000	0.000000	0.000000	0.000000	
61342	0.147407	-0.214320	9.802838	-0.012343	-0.040390	0.128454	0.169705	0.311435	0.348673	-0.123263	-1.740390	-4.092731	0.000000000	0.000000000	0.000000	0.000000	0.000000	0.000000	
61343	0.096196	-0.108573	9.835140	-0.018176	-0.049705	0.150110	0.164099	0.317388	0.341650	-0.131767	-1.761457	-4.018737	0.000000000	0.000000000	0.000000	0.000000	0.000000	0.000000	
61344	0.217845	0.086590	9.841720	-0.010503	-0.047083	0.135908	0.171217	0.312041	0.350484	-0.136130	-1.781941	-3.951081	0.000000000	0.000000000	0.000000	0.000000	0.000000	0.000000	
61345	0.485286	0.182382	9.809033	-0.013472	-0.068531	0.095075	0.165200	0.318386	0.340717	-0.141510	-1.812089	-3.903353	0.000000000	0.000000000	0.000000	0.000000	0.000000	0.000000	
61346	0.527926	0.183684	9.727055	-0.009447	-0.059764	0.095642	0.173280	0.310021	0.348511	-0.144819	-1.838665	-3.853902	0.000000000	0.000000000	0.000000	0.000000	0.000000	0.000000	
61347	0.351636	0.102021	9.732863	-0.017503	-0.052419	0.096235	0.165378	0.316335	0.340572	-0.152064	-1.861210	-3.805636	0.000000000	0.000000000	0.000000	0.000000	0.000000	0.000000	
61348	0.308848	0.038769	9.761205	-0.027393	-0.049032	0.093911	0.172889	0.310151	0.348841	-0.163954	-1.882652	-3.758686	0.000000000	0.000000000	0.000000	0.000000	0.000000	0.000000	
61349	0.372018	0.102455	9.798836	-0.019261	-0.053339	0.076192	0.168457	0.316000	0.341080	-0.171690	-1.905670	-3.719987	0.000000000	0.000000000	0.000000	0.000000	0.000000	0.000000	
61350	0.493310	0.214780	9.841772	0.001482	-0.037769	0.047653	0.173727	0.310905	0.348276	-0.169089	-1.921790	-3.694545	0.000000000	0.000000000	0.000000	0.000000	0.000000	0.000000	
61351	0.737591	0.254432	9.847330	0.008724	-0.036719	-0.008854	0.166469	0.317049	0.340315	-0.161934	-1.937199	-3.696502	0.000000000	0.000000000	0.000000	0.000000	0.000000	0.000000	
61352	0.693949	0.151087	9.795196	0.008841	-0.035554	-0.042148	0.174082	0.308786	0.348961	-0.154377	-1.952385	-3.713302	0.000000000	0.000000000	0.000000	0.000000	0.000000	0.000000	
61353	0.385243	-0.021917	9.751756	-0.015061	-0.000297	-0.018700	0.167359	0.317124	0.341785	-0.158354	-1.950566	-3.720014	0.000000000	0.000000000	0.000000	0.000000	0.000000	0.000000	
61354	0.208911	-0.172203	9.764775	0.002014	0.008408	0.000806	0.173996	0.311018	0.349911	-0.154752	-1.944705	-3.717420	0.000000000	0.000000000	0.000000	0.000000	0.000000	0.000000	
61355	0.285636	-0.164447	9.826033	0.004720	-0.006556	0.012950	0.167198	0.317622	0.340805	-0.149902	-1.945775	-3.709001	0.000000000	0.000000000	0.000000	0.000000	0.000000	0.000000	
61356	0.392861	-0.081135	9.850039	-0.003641	0.010252	0.008145	0.173406	0.310639	0.349035	-0.149117	-1.939025	-3.702645	0.000000000	0.000000000	0.000000	0.000000	0.000000	0.000000	
61357	0.411467	0.009881	9.850176	-0.006098	0.012193	-0.008423	0.168426	0.319237	0.340396	-0.149095	-1.931221	-3.704458	0.000000000	0.000000000	0.000000	0.000000	0.000000	0.000000	
61358	0.479161	0.087747	9.827579	0.024898	0.002041	-0.047169	0.173621	0.310862	0.348128	-0.133793	-1.928458	-3.724097	0.000000000	0.000000000	0.000000	0.000000	0.000000	0.000000	
61359	0.535851	0.076640	9.781513	0.033168	-0.001760	-0.074768	0.168083	0.316844	0.341514	-0.113885	-1.927510	-3.757589	0.000000000	0.000000000	0.000000	0.000000	0.000000	0.000000	
61360	0.233246	-0.098789	9.780251	0.010520	0.027278	-0.048423	0.173828	0.311085	0.348151	-0.105431	-1.912686	-3.777722	0.000000000	0.000000000	0.000000	0.000000	0.000000	0.000000	
61361	-0.193667	-0.205924	9.840525	0.018147	0.074583	-0.043021	0.166463	0.318171	0.338799	-0.093310	-1.875031	-3.796109	0.000000000	0.000000000	0.000000	0.000000	0.000000	0.000000	
61362	-0.136906	-0.213875	9.843148	0.015565	0.095847	0.003401	0.173128	0.311795	0.347341	-0.083271	-1.827422	-3.791980	0.000000000	0.000000000	0.000000	0.000000	0.000000	0.000000	
61363	0.093385	-0.173658	9.751942	0.028320	0.075309	0.030527	0.165733	0.318028	0.340020	-0.067556	-1.789134	-3.775215	0.000000000	0.000000000	0.000000	0.000000	0.000000	0.000000	
61364	0.366396	-0.021312	9.690855	0.023767	0.048090	0.040780	0.172697	0.311342	0.347426	-0.054151	-1.764311	-3.753052	0.000000000	0.000000000	0.000000	0.000000	0.000000	0.000000	
61365	0.437100	0.064075	9.680834	0.002673	0.020987	0.043213	0.166239	0.317948	0.340637	-0.050831	-1.752039	-3.730188	0.000000000	0.000000000	0.000000	0.000000	0.000000	0.000000	
61366	0.396693	0.072584	9.733914	0.013824	0.020669	0.019596	0.170992	0.311373	0.347152	-0.041854	-1.740322	-3.719015	0.000000000	0.000000000	0.000000	0.000000	0.000000	0.000000	
61367	0.372015	0.056826	9.750104	0.006918	0.001481	0.015036	0.164627	0.318161	0.341167	-0.036041	-1.737445	-3.709603	0.000000000	0.000000000	0.000000	0.000000	0.000000	0.000000	
61368	0.069206	-0.007594	9.783023	-0.003761	0.026828	-0.013625	0.173885	0.311106	0.347760	-0.034978	-1.722799	-3.711878	0.000000000	0.000000000	0.000000	0.000000	0.000000	0.000000	
61369	-0.126913	-0.068022	9.766768	0.007654	0.070178	-0.038224	0.165507	0.317237	0.341350	-0.028074	-1.686916	-3.727926	0.000000000	0.000000000	0.000000	0.000000	0.000000	0.000000	
61370	0.035015	-0.093643	9.683482	-0.007707	0.044995	0.023581	0.172659	0.311051	0.349163	-0.029418	-1.663587	-3.714363	0.000000000	0.000000000	0.000000	0.000000	0.000000	0.000000	
61371	0.106443	-0.064953	9.695391	-0.011882	0.019153	0.055454	0.164595	0.318292	0.341955	-0.033203	-1.651902	-3.685652	0.000000000	0.000000000	0.000000	0.000000	0.000000	0.000000	
61372	0.294452	-0.058684	9.671568	-0.017398	-0.002005	0.075460	0.173115	0.310665	0.348987	-0.039883	-1.650995	-3.646772	0.000000000	0.000000000	0.000000	0.000000	0.000000	0.000000	
61373	0.353011	-0.053755	9.737721	-0.040498	-0.026294	0.091121	0.165600	0.316988	0.340445	-0.057856	-1.661028	-3.601007	0.000000000	0.000000000	0.000000	0.000000	0.000000	0.000000	
61374	0.347916	-0.031950	9.783317	-0.036033	-0.042894	0.095389	0.173972	0.310150	0.347551	-0.073724	-1.679614	-3.552584	0.000000000	0.000000000	0.000000	0.000000	0.000000	0.000000	
61375	0.258754	-0.175619	9.764057	-0.038394	-0.028245	0.110323	0.167694	0.317811	0.339146	-0.091049	-1.690561	-3.497637	0.000000000	0.000000000	0.000000	0.000000	0.000000	0.000000	
61376	0.062822	-0.289403	9.742893	-0.047006	-0.030889	0.131554	0.174126	0.310498	0.348491	-0.112691	-1.703355	-3.432581	0.000000000	0.000000000	0.000000	0.000000	0.000000	0.000000	
61377	-0.113561	-0.355795	9.738974	-0.053323	-0.035316	0.155818	0.168017	0.317100	0.341359	-0.138027	-1.717379	-3.355880	0.000000000	0.000000000	0.000000	0.000000	0.000000	0.000000	
61378	0.019645	-0.293768	9.739615	-0.058314	-0.049335	0.192967	0.175517	0.309356	0.349564	-0.165988	-1.738845	-3.260756	0.000000000	0.000000000	0.000000	0.000000	0.000000	0.000000	
61379	0.083594	-0.116886	9.796959	-0.049243	-0.073034	0.228512	0.171574	0.315964	0.341581	-0.190618	-1.770542	-3.149257	0.000000000	0.000000000	0.000000	0.000000	0.000000	0.000000	
61380	0.270737	-0.001797	9.819396	-0.055100	-0.089817	0.223243	0.176509	0.309182	0.349199	-0.217604	-1.811198	-3.040238	0.000000000	0.000000000	0.000000	0.000000	0.000000	0.000000	
61381	0.426972	0.125058	9.793956	-0.044140	-0.108236	0.214068	0.171134	0.315788	0.341119	-0.239659	-1.859675	-2.935539	0.000000000	0.000000000	0.000000	0.000000	0.000000	0.000000	
61382	0.520089	0.127148	9.772191	-0.060010	-0.097283	0.182096	0.179235	0.306731	0.350278	-0.268518	-1.903889	-2.844754	0.000000000	0.000000000	0.000000	0.000000	0.000000	0.000000	
61383	0.583129	0.071230	9.726911	-0.062454	-0.092814	0.157457	0.172947	0.315099	0.343037	-0.298465	-1.945211	-2.767085	0.000000000	0.000000000	0.000000	0.000000	0.000000	0.000000	
61384	0.449666	0.088620	9.765271	-0.056169	-0.082794	0.144796	0.181305	0.307409	0.350313	-0.325008	-1.982514	-2.694910	0.000000000	0.000000000	0.000000	0.000000	0.000000	0.000000	
61385	0.384710	0.049868	9.798015	-0.073727	-0.076774	0.162064	0.174050	0.315113	0.343346	-0.360425	-2.016153	-2.615041	0.000000000	0.000000000	0.000000	0.000000	0.000000	0.000000	
61386	0.434818	0.051891	9.797337	-0.067813	-0.077768	0.150325	0.181210	0.306382	0.350477	-0.392710	-2.050957	-2.540892	0.000000000	0.000000000	0.000000	0.000000	0.000000	0.000000	
61387	0.495302	0.108054	9.820001	-0.062735	-0.075567	0.149260	0.174545	0.312758	0.341935	-0.422648	-2.084064	-2.467105	0.000000000	0.000000000	0.000000	0.000000	0.000000	0.000000	
61388	0.562187	0.150999	9.838627	-0.058966	-0.069023	0.130000	0.182228	0.307636	0.351249	-0.450439	-2.114690	-2.402576	0.000000000	0.000000000	0.000000	0.000000	0.000000	0.000000	
61389	0.575241	0.104992	9.813524	-0.048315	-0.057169	0.115311	0.175525	0.314275	0.341491	-0.472823	-2.139229	-2.345049	0.000000000	0.000000000	0.000000	0.000000	0.000000	0.000000	
61390	0.578189	-0.026750	9.767511	-0.034488	-0.059422	0.106511	0.183366	0.305820	0.350049	-0.488564	-2.165315	-2.290825	0.000000000	0.000000000	0.000000	0.000000	0.000000	0.000000	
61391	0.533744	-0.125789	9.746914	-0.048462	-0.026734	0.093650	0.177301	0.314134	0.342447	-0.510662	-2.175514	-2.243754	0.000000000	0.000000000	0.000000	0.000000	0.000000	0.000000	
61392	0.485441	-0.174778	9.789145	-0.039471	-0.019836	0.092223	0.185374	0.306615	0.350202	-0.528542	-2.182725	-2.196526	0.000000000	0.000000000	0.000000	0.000000	0.000000	0.000000	
61393	0.481940	-0.157375	9.837379	-0.041808	-0.009245	0.105373	0.177863	0.311247	0.342668	-0.547740	-2.184572	-2.143923	0.000000000	0.000000000	0.000000	0.000000	0.000000	0.000000	
61394	0.428560	-0.149541	9.849806	-0.035272	0.002150	0.115275	0.183934	0.304354	0.351537	-0.564034	-2.181150	-2.086789	0.000000000	0.000000000	0.000000	0.000000	0.000000	0.000000	
61395	0.485182	-0.111772	9.862202	-0.021361	0.013095	0.093856	0.177400	0.311486	0.342317	-0.573274	-2.172417	-2.039792	0.000000000	0.000000000	0.000000	0.000000	0.000000	0.000000	
61396	0.563648	-0.104903	9.814169	-0.028164	0.019129	0.096490	0.184193	0.304737	0.350896	-0.585815	-2.160956	-1.991331	0.000000000	0.000000000	0.000000	0.000000	0.000000	0.000000	
61397	0.502146	-0.037938	9.772051	-0.033865	0.024858	0.084828	0.177159	0.311818	0.343062	-0.600823	-2.146747	-1.948709	0.000000000	0.000000000	0.000000	0.000000	0.000000	0.000000	
61398	0.450230	-0.032221	9.740860	-0.032417	0.022527	0.067015	0.185568	0.304717	0.351383	-0.614846	-2.133789	-1.913657	0.000000000	0.000000000	0.000000	0.000000	0.000000	0.000000	
61399	0.404805	-0.094219	9.725046	-0.042773	0.011684	0.061944	0.178993	0.311982	0.343880	-0.633658	-2.126011	-1.881908	0.000000000	0.000000000	0.000000	0.000000	0.000000	0.000000	
61400	0.291473	-0.086043	9.763623	-0.044854	0.015003	0.067008	0.185776	0.304233	0.351172	-0.653609	-2.116624	-1.847285	0.000000000	0.000000000	0.000000	0.000000	0.000000	0.000000	
61401	0.267111	-0.064771	9.775032	-0.034600	0.003500	0.063086	0.178654	0.311986	0.343293	-0.668508	-2.112670	-1.814952	0.000000000	0.000000000	0.000000	0.000000	0.000000	0.000000	
61402	0.359439	-0.039770	9.743456	-0.032105	-0.006584	0.040077	0.186031	0.303763	0.349771	-0.681897	-2.113722	-1.793025	0.000000000	0.000000000	0.000000	0.000000	0.000000	0.000000	
61403	0.309393	-0.024419	9.766067	-0.052387	-0.011321	0.046166	0.178831	0.310927	0.343636	-0.704938	-2.116907	-1.768695	0.000000000	0.000000000	0.000000	0.000000	0.000000	0.000000	
61404	0.269217	0.015769	9.772976	-0.040686	-0.021093	0.026236	0.185412	0.303808	0.351666	-0.722186	-2.124954	-1.753925	0.000000000	0.000000000	0.000000	0.000000	0.000000	0.000000	
61405	0.274004	0.041791	9.771206	-0.052912	-0.011174	0.035267	0.180169	0.310179	0.342420	-0.745186	-2.128056	-1.734805	0.000000000	0.000000000	0.000000	0.000000	0.000000	0.000000	
61406	0.226407	0.080026	9.760096	-0.036719	-0.024330	0.042989	0.185622	0.304170	0.350485	-0.760841	-2.137533	-1.711638	0.000000000	0.000000000	0.000000	0.000000	0.000000	0.000000	
61407	0.272714	0.074625	9.712667	-0.026843	-0.034339	0.015625	0.179092	0.310602	0.342761	-0.770916	-2.151733	-1.701759	0.000000000	0.000000000	0.000000	0.000000	0.000000	0.000000	
61408	0.337360	0.022903	9.721146	-0.031128	-0.034990	0.020443	0.187275	0.302711	0.352413	-0.783509	-2.166436	-1.688221	0.000000000	0.000000000	0.000000	0.000000	0.000000	0.000000	
61409	0.315203	0.026783	9.693885	-0.044118	-0.037121	0.014975	0.179799	0.310323	0.344350	-0.801722	-2.181940	-1.678631	0.000000000	0.000000000	0.000000	0.000000	0.000000	0.000000	
61410	0.251420	0.197050	9.746509	-0.016349	-0.031294	-0.013507	0.186186	0.302843	0.351700	-0.806646	-2.195100	-1.682865	0.000000000	0.000000000	0.000000	0.000000	0.000000	0.000000	
61411	0.573656	0.181444	9.733095	-0.011599	-0.042825	-0.027108	0.179762	0.309602	0.344377	-0.808346	-2.213640	-1.693348	0.000000000	0.000000000	0.000000	0.000000	0.000000	0.000000	
61412	0.422479	0.148090	9.771487	-0.012823	-0.032887	-0.034540	0.187513	0.303794	0.352136	-0.811194	-2.227702	-1.706623	0.000000000	0.000000000	0.000000	0.000000	0.000000	0.000000	
61413	0.325099	0.421675	9.773557	0.015197	-0.002376	-0.119774	0.179542	0.309233	0.344758	-0.798081	-2.227551	-1.761665	0.000000000	0.000000000	0.000000	0.000000	0.000000	0.000000	
61414	0.880156	0.464512	9.769077	0.045267	-0.013774	-0.190898	0.185906	0.304428	0.351717	-0.770278	-2.233504	-1.850520	0.000000000	0.000000000	0.000000	0.000000	0.000000	0.000000	
61415	0.839398	0.323931	9.778122	0.028985	-0.019565	-0.182407	0.177683	0.311461	0.343295	-0.749054	-2.242247	-1.935389	0.000000000	0.000000000	0.000000	0.000000	0.000000	0.000000	
61416	0.512223	0.235154	9.773718	0.039801	0.033925	-0.198142	0.184316	0.304502	0.350660	-0.723710	-2.225398	-2.027748	0.000000000	0.000000000	0.000000	0.000000	0.000000	0.000000	
61417	0.753648	0.153903	9.820124	0.052527	0.056992	-0.241276	0.176661	0.311344	0.344467	-0.689977	-2.198027	-2.141208	0.000000000	0.000000000	0.000000	0.000000	0.000000	0.000000	
61418	0.937675	-0.055497	9.858788	0.031476	0.048294	-0.281991	0.183561	0.304206	0.351484	-0.667154	-2.174698	-2.272992	0.000000000	0.000000000	0.000000	0.000000	0.000000	0.000000	
61419	0.565289	-0.203208	9.926218	0.024484	0.083239	-0.310145	0.176032	0.314203	0.343838	-0.645713	-2.135322	-2.419464	0.000000000	0.000000000	0.000000	0.000000	0.000000	0.000000	
61420	0.478374	-0.318461	9.836711	0.030582	0.114224	-0.336348	0.180527	0.305976	0.351983	-0.622530	-2.080700	-2.578608	0.000000000	0.000000000	0.000000	0.000000	0.000000	0.000000	
61421	0.500255	-0.336376	9.812809	0.009607	0.103030	-0.333925	0.172562	0.314383	0.343407	-0.608207	-2.031965	-2.736494	0.000000000	0.000000000	0.000000	0.000000	0.000000	0.000000	
61422	0.234585	-0.360222	9.794709	-0.003540	0.108201	-0.296289	0.178658	0.308634	0.353160	-0.602272	-1.979936	-2.876154	0.000000000	0.000000000	0.000000	0.000000	0.000000	0.000000	
61423	0.155846	-0.486603	9.720872	0.000116	0.090572	-0.268739	0.170557	0.314156	0.343762	-0.594058	-1.936659	-3.002803	0.000000000	0.000000000	0.000000	0.000000	0.000000	0.000000	
61424	0.181497	-0.448038	9.721874	-0.009769	0.078581	-0.244927	0.177472	0.307171	0.352105	-0.592139	-1.898489	-3.116816	0.000000000	0.000000000	0.000000	0.000000	0.000000	0.000000	
61425	0.145153	-0.333996	9.775622	-0.003068	0.064102	-0.220561	0.169577	0.315183	0.343958	-0.586591	-1.867469	-3.220300	0.000000000	0.000000000	0.000000	0.000000	0.000000	0.000000	
61426	0.065061	-0.188333	9.811458	-0.010327	0.052191	-0.216225	0.175514	0.308511	0.350534	-0.585512	-1.841744	-3.321529	0.000000000	0.000000000	0.000000	0.000000	0.000000	0.000000	
61427	0.071439	-0.218746	9.705178	-0.009433	0.040396	-0.186372	0.168326	0.316243	0.343976	-0.583706	-1.821686	-3.408559	0.000000000	0.000000000	0.000000	0.000000	0.000000	0.000000	
61428	-0.009681	-0.173111	9.679913	-0.005690	0.018872	-0.175931	0.173956	0.307898	0.351643	-0.581096	-1.811667	-3.490042	0.000000000	0.000000000	0.000000	0.000000	0.000000	0.000000	
61429	-0.018242	-0.179354	9.644701	-0.016658	0.001942	-0.143270	0.167121	0.315764	0.343538	-0.583495	-1.809528	-3.556296	0.000000000	0.000000000	0.000000	0.000000	0.000000	0.000000	
61430	0.005253	-0.230105	9.676949	-0.025608	-0.014934	-0.125600	0.173735	0.308798	0.351034	-0.591167	-1.815410	-3.613483	0.000000000	0.000000000	0.000000	0.000000	0.000000	0.000000	
61431	0.083648	-0.190772	9.721429	-0.026256	-0.028145	-0.108544	0.164971	0.315197	0.343752	-0.598757	-1.827294	-3.662999	0.000000000	0.000000000	0.000000	0.000000	0.000000	0.000000	
61432	0.152835	-0.157675	9.735479	-0.049067	-0.048520	-0.078452	0.172916	0.310596	0.351221	-0.618332	-1.848994	-3.698186	0.000000000	0.000000000	0.000000	0.000000	0.000000	0.000000	
61433	0.240179	-0.084719	9.742244	-0.027206	-0.048460	-0.074404	0.165417	0.314527	0.344253	-0.626898	-1.870346	-3.731284	0.000000000	0.000000000	0.000000	0.000000	0.000000	0.000000	
61434	0.316986	-0.100831	9.762109	-0.043956	-0.060881	-0.092057	0.173743	0.307960	0.352804	-0.643793	-1.898036	-3.771373	0.000000000	0.000000000	0.000000	0.000000	0.000000	0.000000	
61435	0.276131	-0.271770	9.712692	-0.031157	-0.058075	-0.073114	0.166499	0.315518	0.343450	-0.654303	-1.923974	-3.803792	0.000000000	0.000000000	0.000000	0.000000	0.000000	0.000000	
61436	0.358444	-0.380599	9.738039	-0.048061	-0.070481	-0.053863	0.173528	0.308014	0.352234	-0.673738	-1.956056	-3.826603	0.000000000	0.000000000	0.000000	0.000000	0.000000	0.000000	
61437	0.378361	-0.449927	9.837936	-0.037413	-0.047083	-0.003741	0.164934	0.314475	0.343779	-0.688558	-1.976401	-3.825923	0.000000000	0.000000000	0.000000	0.000000	0.000000	0.000000	
61438	0.415837	-0.493429	9.881775	-0.036667	-0.033850	0.014369	0.172940	0.309196	0.352353	-0.703656	-1.990612	-3.816890	0.000000000	0.000000000	0.000000	0.000000	0.000000	0.000000	
61439	0.320856	-0.443111	9.864418	-0.030283	-0.035990	0.031452	0.167671	0.315844	0.344421	-0.715905	-2.005475	-3.799443	0.000000000	0.000000000	0.000000	0.000000	0.000000	0.000000	
61440	0.382015	-0.115973	9.965384	-0.023929	-0.044905	0.034153	0.173319	0.307222	0.351705	-0.725262	-2.024841	-3.779836	0.000000000	0.000000000	0.000000	0.000000	0.000000	0.000000	
61441	0.697029	0.174570	9.973295	-0.011021	-0.032637	0.009027	0.166278	0.315149	0.343831	-0.727837	-2.038369	-3.773121	0.000000000	0.000000000	0.000000	0.000000	0.000000	0.000000	
61442	0.740899	0.234746	9.847743	0.011126	-0.003992	-0.027467	0.173442	0.306987	0.351469	-0.719407	-2.038573	-3.783447	0.000000000	0.000000000	0.000000	0.000000	0.000000	0.000000	
61443	0.634231	0.176707	9.716757	-0.002294	0.013471	-0.069064	0.166362	0.315607	0.344089	-0.716255	-2.030794	-3.814322	0.000000000	0.000000000	0.000000	0.000000	0.000000	0.000000	
61444	0.338369	0.029478	9.692081	-0.016156	0.058672	-0.107207	0.173933	0.308030	0.351500	-0.719503	-2.001557	-3.862825	0.000000000	0.000000000	0.000000	0.000000	0.000000	0.000000	
61445	0.370736	-0.145520	9.669373	-0.014723	0.060920	-0.096167	0.165943	0.316283	0.342528	-0.721814	-1.971296	-3.906933	0.000000000	0.000000000	0.000000	0.000000	0.000000	0.000000	
61446	0.323388	-0.114049	9.758071	-0.034552	0.062631	-0.084619	0.172855	0.309445	0.352328	-0.734265	-1.940040	-3.945456	0.000000000	0.000000000	0.000000	0.000000	0.000000	0.000000	
61447	0.341494	-0.105782	9.755607	-0.014982	0.075474	-0.081834	0.164981	0.314212	0.344065	-0.736973	-1.902752	-3.982812	0.000000000	0.000000000	0.000000	0.000000	0.000000	0.000000	
61448	0.239746	-0.088052	9.776255	-0.018343	0.048288	-0.080500	0.171102	0.307902	0.352251	-0.741796	-1.878325	-4.019024	0.000000000	0.000000000	0.000000	0.000000	0.000000	0.000000	
61449	0.325805	-0.029303	9.819338	-0.016080	0.046322	-0.098156	0.164565	0.315180	0.344487	-0.744776	-1.855031	-4.064001	0.000000000	0.000000000	0.000000	0.000000	0.000000	0.000000	
61450	0.371621	-0.038999	9.749934	-0.010717	0.040246	-0.090166	0.169443	0.308377	0.352496	-0.745840	-1.834508	-4.105167	0.000000000	0.000000000	0.000000	0.000000	0.000000	0.000000	
61451	0.268258	-0.103917	9.736196	-0.008842	0.047580	-0.098035	0.163522	0.315756	0.344293	-0.745370	-1.810615	-4.150095	0.000000000	0.000000000	0.000000	0.000000	0.000000	0.000000	
61452	0.156076	-0.112072	9.760302	-0.026924	0.047654	-0.094355	0.171306	0.309824	0.352994	-0.754140	-1.786585	-4.191825	0.000000000	0.000000000	0.000000	0.000000	0.000000	0.000000	
61453	0.171141	-0.055865	9.781831	-0.025048	0.024019	-0.106651	0.162690	0.315425	0.343909	-0.761295	-1.773903	-4.240725	0.000000000	0.000000000	0.000000	0.000000	0.000000	0.000000	
61454	0.238000	-0.040123	9.790686	-0.018332	0.016452	-0.118259	0.169834	0.309801	0.351429	-0.765639	-1.764932	-4.294940	0.000000000	0.000000000	0.000000	0.000000	0.000000	0.000000	
61455	0.239902	0.029537	9.786155	-0.008867	0.016431	-0.123216	0.161770	0.317042	0.344221	-0.764764	-1.755940	-4.351707	0.000000000	0.000000000	0.000000	0.000000	0.000000	0.000000	
61456	0.288656	0.030609	9.739057	-0.006429	0.013123	-0.130952	0.168518	0.308580	0.353270	-0.763256	-1.748640	-4.411684	0.000000000	0.000000000	0.000000	0.000000	0.000000	0.000000	
61457	0.380666	0.002168	9.746312	-0.017459	0.002761	-0.139682	0.160799	0.316516	0.344222	-0.766168	-1.746304	-4.476232	0.000000000	0.000000000	0.000000	0.000000	0.000000	0.000000	
61458	0.429128	-0.022999	9.747818	-0.024672	0.006910	-0.149705	0.168578	0.309170	0.353386	-0.773107	-1.742095	-4.544799	0.000000000	0.000000000	0.000000	0.000000	0.000000	0.000000	
61459	0.326007	-0.064053	9.773081	-0.020782	0.022427	-0.169002	0.160201	0.315862	0.345753	-0.777140	-1.730626	-4.623479	0.000000000	0.000000000	0.000000	0.000000	0.000000	0.000000	
61460	0.308351	-0.120238	9.770679	-0.040800	0.026847	-0.143068	0.167363	0.310951	0.353377	-0.791896	-1.716874	-4.689740	0.000000000	0.000000000	0.000000	0.000000	0.000000	0.000000	
61461	0.296702	-0.064503	9.813015	-0.037685	0.028308	-0.141733	0.157852	0.315778	0.345248	-0.804406	-1.702451	-4.755438	0.000000000	0.000000000	0.000000	0.000000	0.000000	0.000000	
61462	0.415615	-0.129417	9.760505	-0.031120	0.039015	-0.144369	0.164980	0.309446	0.354394	-0.814555	-1.682928	-4.822378	0.000000000	0.000000000	0.000000	0.000000	0.000000	0.000000	
61463	0.331129	-0.151326	9.783385	-0.038329	0.047229	-0.152638	0.159047	0.317525	0.345626	-0.827274	-1.659629	-4.893417	0.000000000	0.000000000	0.000000	0.000000	0.000000	0.000000	
61464	0.337387	-0.158050	9.798807	-0.036262	0.042221	-0.152329	0.165655	0.311405	0.353083	-0.839819	-1.638658	-4.963330	0.000000000	0.000000000	0.000000	0.000000	0.000000	0.000000	
61465	0.326186	-0.173047	9.811911	-0.027257	0.045903	-0.158247	0.156426	0.316206	0.345932	-0.847257	-1.616091	-5.037044	0.000000000	0.000000000	0.000000	0.000000	0.000000	0.000000	
61466	0.280982	-0.176342	9.840006	-0.034531	0.047017	-0.151200	0.164506	0.310386	0.353478	-0.859045	-1.592847	-5.106735	0.000000000	0.000000000	0.000000	0.000000	0.000000	0.000000	
61467	0.197927	-0.167724	9.831474	-0.026160	0.045275	-0.142824	0.156259	0.317273	0.346389	-0.866251	-1.570465	-5.173084	0.000000000	0.000000000	0.000000	0.000000	0.000000	0.000000	
61468	0.293646	-0.163462	9.783285	-0.026220	0.067433	-0.153649	0.162594	0.309633	0.354403	-0.874097	-1.537513	-5.244500	0.000000000	0.000000000	0.000000	0.000000	0.000000	0.000000	
61469	0.277664	-0.049768	9.766710	-0.040568	0.043107	-0.137683	0.154733	0.317797	0.345722	-0.888293	-1.516161	-5.308383	0.000000000	0.000000000	0.000000	0.000000	0.000000	0.000000	
61470	0.246181	-0.133914	9.760013	-0.044621	0.046525	-0.132865	0.162026	0.311099	0.352915	-0.905251	-1.493068	-5.369568	0.000000000	0.000000000	0.000000	0.000000	0.000000	0.000000	
61471	0.197752	-0.141392	9.746303	-0.045096	0.031450	-0.132922	0.154427	0.317678	0.346078	-0.921717	-1.477254	-5.431099	0.000000000	0.000000000	0.000000	0.000000	0.000000	0.000000	
61472	0.187899	-0.101993	9.769386	-0.047623	0.028320	-0.133286	0.160614	0.311388	0.352942	-0.940143	-1.462893	-5.492616	0.000000000	0.000000000	0.000000	0.000000	0.000000	0.000000	
61473	0.230964	-0.146594	9.755552	-0.047023	0.040180	-0.138602	0.155400	0.317219	0.347319	-0.957481	-1.442963	-5.556937	0.000000000	0.000000000	0.000000	0.000000	0.000000	0.000000	
61474	0.262373	-0.203905	9.710958	-0.059103	0.029446	-0.145701	0.160351	0.310867	0.354787	-0.981276	-1.428205	-5.623709	0.000000000	0.000000000	0.000000	0.000000	0.000000	0.000000	
61475	0.204125	-0.204628	9.708127	-0.045802	0.026179	-0.133005	0.152159	0.318206	0.349018	-0.998175	-1.414950	-5.685255	0.000000000	0.000000000	0.000000	0.000000	0.000000	0.000000	
61476	0.195167	-0.201217	9.743454	-0.051326	0.003653	-0.137358	0.160014	0.311164	0.356183	-1.018385	-1.412482	-5.748076	0.000000000	0.000000000	0.000000	0.000000	0.000000	0.000000	
61477	0.159928	-0.194946	9.765576	-0.032542	0.010881	-0.140091	0.153615	0.317084	0.348769	-1.028914	-1.406580	-5.812882	0.000000000	0.000000000	0.000000	0.000000	0.000000	0.000000	
61478	0.224742	-0.126884	9.776658	-0.040476	0.024324	-0.137640	0.158433	0.312236	0.356414	-1.043952	-1.394277	-5.876693	0.000000000	0.000000000	0.000000	0.000000	0.000000	0.000000	
61479	0.130323	-0.098334	9.747180	-0.038638	-0.001843	-0.141869	0.150112	0.317112	0.348873	-1.057357	-1.394452	-5.942240	0.000000000	0.000000000	0.000000	0.000000	0.000000	0.000000	
61480	0.126354	-0.225540	9.697824	-0.034320	0.016057	-0.157470	0.157268	0.311064	0.355482	-1.069238	-1.386301	-6.014853	0.000000000	0.000000000	0.000000	0.000000	0.000000	0.000000	
61481	0.006212	-0.232308	9.677073	-0.041100	0.001463	-0.134149	0.149214	0.318589	0.347597	-1.083963	-1.384740	-6.076744	0.000000000	0.000000000	0.000000	0.000000	0.000000	0.000000	
61482	0.034342	-0.213511	9.724620	-0.033729	-0.019277	-0.138448	0.156345	0.311551	0.356510	-1.095791	-1.393318	-6.140252	0.000000000	0.000000000	0.000000	0.000000	0.000000	0.000000	
61483	0.199998	-0.228461	9.697818	-0.046044	-0.045081	-0.147317	0.150069	0.317236	0.348860	-1.112749	-1.414046	-6.208004	0.000000000	0.000000000	0.000000	0.000000	0.000000	0.000000	
61484	0.248484	-0.242837	9.743147	-0.047722	-0.048533	-0.160133	0.157287	0.311071	0.355352	-1.130967	-1.436829	-6.280598	0.000000000	0.000000000	0.000000	0.000000	0.000000	0.000000	
61485	0.192849	-0.232790	9.765013	-0.028803	-0.044518	-0.168249	0.148558	0.317906	0.347789	-1.139433	-1.457509	-6.358339	0.000000000	0.000000000	0.000000	0.000000	0.000000	0.000000	
61486	0.143142	-0.198836	9.743883	-0.018241	-0.057357	-0.163136	0.155348	0.310588	0.355862	-1.143482	-1.484558	-6.433564	0.000000000	0.000000000	0.000000	0.000000	0.000000	0.000000	
61487	0.186993	-0.160871	9.810568	-0.017906	-0.050912	-0.156784	0.148029	0.319393	0.347770	-1.146822	-1.508138	-6.505769	0.000000000	0.000000000	0.000000	0.000000	0.000000	0.000000	
61488	0.290527	-0.174317	9.802330	-0.014409	-0.042004	-0.167067	0.155945	0.311957	0.356295	-1.148926	-1.527904	-6.582169	0.000000000	0.000000000	0.000000	0.000000	0.000000	0.000000	
61489	0.263143	-0.169163	9.750042	-0.026925	-0.061214	-0.180544	0.148418	0.318703	0.348662	-1.156205	-1.556656	-6.665620	0.000000000	0.000000000	0.000000	0.000000	0.000000	0.000000	
61490	0.265069	-0.210600	9.752680	-0.021549	-0.060354	-0.172566	0.154314	0.311448	0.354992	-1.161580	-1.585249	-6.745144	0.000000000	0.000000000	0.000000	0.000000	0.000000	0.000000	
61491	0.289679	-0.267854	9.758295	-0.016608	-0.067129	-0.173629	0.146774	0.318332	0.348017	-1.163980	-1.616782	-6.825232	0.000000000	0.000000000	0.000000	0.000000	0.000000	0.000000	
61492	0.256635	-0.258354	9.773410	-0.019045	-0.067884	-0.167686	0.154225	0.311558	0.356170	-1.168142	-1.648932	-6.901824	0.000000000	0.000000000	0.000000	0.000000	0.000000	0.000000	
61493	0.149785	-0.188189	9.778847	-0.011973	-0.063248	-0.176627	0.145127	0.318107	0.348828	-1.168226	-1.678600	-6.983381	0.000000000	0.000000000	0.000000	0.000000	0.000000	0.000000	
61494	0.239742	-0.249167	9.749286	-0.013925	-0.053334	-0.178689	0.152600	0.311195	0.355394	-1.169705	-1.703915	-7.065916	0.000000000	0.000000000	0.000000	0.000000	0.000000	0.000000	
61495	0.220509	-0.259530	9.727262	-0.019350	-0.046574	-0.174083	0.144909	0.318584	0.348239	-1.173319	-1.725568	-7.146421	0.000000000	0.000000000	0.000000	0.000000	0.000000	0.000000	
61496	0.166412	-0.110143	9.756802	-0.015397	-0.075531	-0.156401	0.152036	0.312245	0.355656	-1.175756	-1.761269	-7.217914	0.000000000	0.000000000	0.000000	0.000000	0.000000	0.000000	
61497	0.283042	-0.094570	9.774667	-0.017521	-0.087781	-0.145847	0.146672	0.317867	0.347889	-1.178774	-1.802278	-7.284533	0.000000000	0.000000000	0.000000	0.000000	0.000000	0.000000	
61498	0.337144	-0.204730	9.735440	-0.019219	-0.089203	-0.157759	0.151417	0.312567	0.356074	-1.182920	-1.844527	-7.356569	0.000000000	0.000000000	0.000000	0.000000	0.000000	0.000000	
61499	0.277944	-0.240283	9.734875	-0.017314	-0.103687	-0.148471	0.144498	0.319975	0.347711	-1.185727	-1.893166	-7.424282	0.000000000	0.000000000	0.000000	0.000000	0.000000	0.000000	
61500	0.330585	-0.302697	9.787995	-0.021615	-0.095028	-0.136468	0.150440	0.311896	0.355549	-1.191242	-1.937995	-7.486139	0.000000000	0.000000000	0.000000	0.000000	0.000000	0.000000	
61501	0.473345	-0.361945	9.857897	-0.009962	-0.086186	-0.141956	0.142148	0.319607	0.346952	-1.190632	-1.978280	-7.550909	0.000000000	0.000000000	0.000000	0.000000	0.000000	0.000000	
61502	0.472900	-0.373874	9.840787	-0.004524	-0.072130	-0.146602	0.150636	0.313103	0.355260	-1.187724	-2.012280	-7.617528	0.000000000	0.000000000	0.000000	0.000000	0.000000	0.000000	
61503	0.372065	-0.350711	9.856695	0.011106	-0.072294	-0.167801	0.142712	0.318280	0.348168	-1.176650	-2.046238	-7.694785	0.000000000	0.000000000	0.000000	0.000000	0.000000	0.000000	
61504	0.352299	-0.417580	9.785856	-0.004826	-0.071978	-0.159284	0.150868	0.313763	0.355932	-1.173588	-2.080272	-7.767281	0.000000000	0.000000000	0.000000	0.000000	0.000000	0.000000	
61505	0.392772	-0.484975	9.766785	0.007028	-0.074103	-0.132354	0.143236	0.320467	0.348152	-1.165169	-2.114750	-7.827591	0.000000000	0.000000000	0.000000	0.000000	0.000000	0.000000	
61506	0.393956	-0.267358	9.837787	0.019675	-0.053694	-0.116203	0.149449	0.313623	0.355179	-1.151084	-2.139619	-7.880409	0.000000000	0.000000000	0.000000	0.000000	0.000000	0.000000	
61507	0.468571	-0.270286	9.830607	0.039576	-0.044564	-0.111545	0.143559	0.321300	0.347900	-1.127483	-2.159817	-7.931077	0.000000000	0.000000000	0.000000	0.000000	0.000000	0.000000	
61508	0.500108	-0.375511	9.783537	0.026425	-0.042298	-0.108009	0.149595	0.313256	0.355086	-1.110280	-2.179134	-7.979281	0.000000000	0.000000000	0.000000	0.000000	0.000000	0.000000	
61509	0.436701	-0.394618	9.780002	0.030261	-0.039449	-0.087676	0.143506	0.320426	0.346600	-1.091662	-2.196708	-8.018601	0.000000000	0.000000000	0.000000	0.000000	0.000000	0.000000	
61510	0.350027	-0.357714	9.824570	0.032813	-0.044440	-0.090932	0.148030	0.313482	0.354426	-1.071691	-2.216862	-8.059635	0.000000000	0.000000000	0.000000	0.000000	0.000000	0.000000	
61511	0.354221	-0.376355	9.834836	0.034021	-0.045068	-0.076349	0.141398	0.321002	0.345838	-1.051589	-2.236976	-8.093503	0.000000000	0.000000000	0.000000	0.000000	0.000000	0.000000	
61512	0.342347	-0.424953	9.784533	0.047408	-0.052054	-0.060016	0.148932	0.314687	0.354250	-1.025201	-2.260466	-8.118731	0.000000000	0.000000000	0.000000	0.000000	0.000000	0.000000	
61513	0.371557	-0.402829	9.793287	0.052857	-0.044092	-0.067345	0.142934	0.320485	0.347305	-0.996411	-2.279993	-8.148318	0.000000000	0.000000000	0.000000	0.000000	0.000000	0.000000	
61514	0.369625	-0.301545	9.812626	0.052765	-0.034597	-0.038584	0.149618	0.314116	0.355716	-0.967850	-2.294948	-8.163292	0.000000000	0.000000000	0.000000	0.000000	0.000000	0.000000	
61515	0.490632	-0.281710	9.823773	0.065915	-0.027053	-0.043879	0.142283	0.320225	0.346547	-0.933334	-2.306153	-8.181819	0.000000000	0.000000000	0.000000	0.000000	0.000000	0.000000	
61516	0.494295	-0.241372	9.763463	0.069920	-0.028944	-0.038812	0.147634	0.315018	0.353495	-0.896568	-2.318392	-8.198513	0.000000000	0.000000000	0.000000	0.000000	0.000000	0.000000	
61517	0.419994	-0.224228	9.741497	0.070607	-0.026548	-0.036945	0.142417	0.322818	0.345386	-0.859985	-2.329329	-8.213742	0.000000000	0.000000000	0.000000	0.000000	0.000000	0.000000	
61518	0.362370	-0.206530	9.772843	0.070351	-0.024181	-0.028002	0.149090	0.314889	0.353734	-0.823215	-2.339198	-8.223427	0.000000000	0.000000000	0.000000	0.000000	0.000000	0.000000	
61519	0.324775	-0.267631	9.755632	0.071186	-0.040727	-0.011653	0.142490	0.322277	0.344358	-0.786906	-2.356680	-8.226489	0.000000000	0.000000000	0.000000	0.000000	0.000000	0.000000	
61520	0.347868	-0.139800	9.800214	0.071414	-0.038344	-0.006233	0.149880	0.315621	0.352629	-0.750055	-2.373157	-8.226254	0.000000000	0.000000000	0.000000	0.000000	0.000000	0.000000	
61521	0.390290	0.098608	9.854788	0.075604	-0.024660	-0.007478	0.143236	0.322573	0.344464	-0.711627	-2.382915	-8.227444	0.000000000	0.000000000	0.000000	0.000000	0.000000	0.000000	
61522	0.555633	0.056638	9.740295	0.061898	-0.030031	-0.012084	0.150249	0.317460	0.351673	-0.679200	-2.395457	-8.230452	0.000000000	0.000000000	0.000000	0.000000	0.000000	0.000000	
61523	0.411761	0.016910	9.626318	0.066628	-0.045274	-0.021331	0.143393	0.322490	0.343694	-0.644669	-2.415190	-8.238165	0.000000000	0.000000000	0.000000	0.000000	0.000000	0.000000	
61524	0.311005	-0.000206	9.634887	0.057018	-0.045755	-0.006531	0.149605	0.317353	0.353172	-0.614685	-2.435207	-8.238757	0.000000000	0.000000000	0.000000	0.000000	0.000000	0.000000	
61525	0.296803	-0.030538	9.720588	0.051829	-0.026805	0.001703	0.142755	0.323082	0.342767	-0.587611	-2.445927	-8.235580	0.000000000	0.000000000	0.000000	0.000000	0.000000	0.000000	
61526	0.349215	0.013669	9.822484	0.041733	-0.041704	-0.006901	0.149850	0.316598	0.352447	-0.564915	-2.464010	-8.235797	0.000000000	0.000000000	0.000000	0.000000	0.000000	0.000000	
61527	0.341796	0.028128	9.770412	0.049812	-0.055483	-0.016531	0.141586	0.323048	0.343779	-0.538347	-2.488461	-8.241217	0.000000000	0.000000000	0.000000	0.000000	0.000000	0.000000	
61528	0.311824	0.049715	9.703201	0.042944	-0.054514	0.002269	0.150428	0.317238	0.349317	-0.515266	-2.512619	-8.237066	0.000000000	0.000000000	0.000000	0.000000	0.000000	0.000000	
61529	0.404416	0.086558	9.730084	0.037552	-0.065191	-0.003861	0.144456	0.323474	0.343021	-0.494701	-2.541604	-8.236415	0.000000000	0.000000000	0.000000	0.000000	0.000000	0.000000	
61530	0.499352	0.066690	9.766943	0.029108	-0.075456	0.003985	0.150494	0.318258	0.350213	-0.478270	-2.575757	-8.231875	0.000000000	0.000000000	0.000000	0.000000	0.000000	0.000000	
61531	0.471930	-0.050224	9.758308	0.026985	-0.058450	-0.011642	0.142991	0.323604	0.343712	-0.462517	-2.601594	-8.234990	0.000000000	0.000000000	0.000000	0.000000	0.000000	0.000000	
61532	0.521302	-0.092773	9.730708	0.018725	-0.057023	0.008796	0.150006	0.317784	0.350688	-0.451149	-2.626930	-8.228234	0.000000000	0.000000000	0.000000	0.000000	0.000000	0.000000	
61533	0.620466	-0.019222	9.826650	0.017262	-0.047938	0.005898	0.143029	0.323618	0.343452	-0.440403	-2.647772	-8.223016	0.000000000	0.000000000	0.000000	0.000000	0.000000	0.000000	
61534	0.725722	0.036904	9.855230	0.032696	-0.043020	0.006326	0.151130	0.318373	0.351374	-0.422311	-2.666434	-8.216873	0.000000000	0.000000000	0.000000	0.000000	0.000000	0.000000	
61535	0.667482	0.114634	9.833027	0.039541	-0.026546	-0.001756	0.143701	0.323455	0.342369	-0.400653	-2.677262	-8.215401	0.000000000	0.000000000	0.000000	0.000000	0.000000	0.000000	
61536	0.621651	0.070103	9.802579	0.029740	-0.020781	0.002221	0.151380	0.317757	0.349445	-0.383879	-2.685322	-8.211371	0.000000000	0.000000000	0.000000	0.000000	0.000000	0.000000	
61537	0.688580	0.059783	9.777338	0.025397	-0.008559	0.025003	0.144202	0.324782	0.341724	-0.369480	-2.687616	-8.197175	0.000000000	0.000000000	0.000000	0.000000	0.000000	0.000000	
61538	0.757109	-0.008383	9.791178	-0.004632	-0.009406	0.018936	0.152326	0.318130	0.349048	-0.369491	-2.690195	-8.185089	0.000000000	0.000000000	0.000000	0.000000	0.000000	0.000000	
61539	0.686440	0.018290	9.850017	0.002219	0.022447	-0.015267	0.144458	0.324596	0.340575	-0.365208	-2.677990	-8.190236	0.000000000	0.000000000	0.000000	0.000000	0.000000	0.000000	
61540	0.692230	-0.103827	9.850632	-0.000844	0.057364	-0.022046	0.150919	0.318281	0.349348	-0.362486	-2.648815	-8.198829	0.000000000	0.000000000	0.000000	0.000000	0.000000	0.000000	
61541	0.511460	-0.160263	9.826674	0.011703	0.072699	0.010282	0.144722	0.325839	0.342424	-0.354286	-2.612634	-8.191909	0.000000000	0.000000000	0.000000	0.000000	0.000000	0.000000	
61542	0.453783	-0.075083	9.875134	0.001653	0.088959	0.026791	0.150580	0.319562	0.349502	-0.351433	-2.568229	-8.176903	0.000000000	0.000000000	0.000000	0.000000	0.000000	0.000000	
61543	0.630291	-0.079420	9.852212	0.008760	0.084460	0.031471	0.143031	0.324179	0.342229	-0.345092	-2.526433	-8.159882	0.000000000	0.000000000	0.000000	0.000000	0.000000	0.000000	
61544	0.554943	-0.104652	9.798416	-0.000911	0.088725	0.060661	0.150565	0.317864	0.350641	-0.344148	-2.482045	-8.128086	0.000000000	0.000000000	0.000000	0.000000	0.000000	0.000000	
61545	0.449241	-0.073633	9.765017	-0.004677	0.103660	0.056453	0.144965	0.323248	0.342181	-0.344730	-2.431056	-8.099178	0.000000000	0.000000000	0.000000	0.000000	0.000000	0.000000	
61546	0.394374	-0.074475	9.777235	0.002051	0.111683	0.075391	0.151607	0.316289	0.348617	-0.342610	-2.375664	-8.059794	0.000000000	0.000000000	0.000000	0.000000	0.000000	0.000000	
61547	0.364403	-0.023669	9.792807	0.001402	0.117920	0.068070	0.144495	0.325041	0.342025	-0.340455	-2.317806	-8.025376	0.000000000	0.000000000	0.000000	0.000000	0.000000	0.000000	
61548	0.433234	0.035672	9.763035	-0.007076	0.109506	0.056077	0.149557	0.316617	0.350669	-0.342250	-2.263510	-7.997195	0.000000000	0.000000000	0.000000	0.000000	0.000000	0.000000	
61549	0.377052	0.063277	9.731307	-0.016454	0.113096	0.070906	0.144117	0.325031	0.341699	-0.348535	-2.207947	-7.961417	0.000000000	0.000000000	0.000000	0.000000	0.000000	0.000000	
61550	0.365958	0.028800	9.688425	-0.020818	0.106854	0.064888	0.149567	0.317892	0.350480	-0.356997	-2.154886	-7.928164	0.000000000	0.000000000	0.000000	0.000000	0.000000	0.000000	
61551	0.366501	0.064686	9.705577	-0.022427	0.110186	0.066448	0.142004	0.323917	0.342875	-0.365917	-2.100707	-7.894528	0.000000000	0.000000000	0.000000	0.000000	0.000000	0.000000	
61552	0.384724	0.045659	9.732300	-0.016810	0.113404	0.043853	0.149967	0.316494	0.350208	-0.372038	-2.044574	-7.870664	0.000000000	0.000000000	0.000000	0.000000	0.000000	0.000000	
61553	0.347794	0.048788	9.717689	-0.020529	0.110240	0.052315	0.143290	0.324285	0.343064	-0.379678	-1.990407	-7.843799	0.000000000	0.000000000	0.000000	0.000000	0.000000	0.000000	
61554	0.304919	0.056445	9.692562	-0.015189	0.117014	0.042249	0.149538	0.317601	0.351287	-0.384953	-1.932550	-7.821558	0.000000000	0.000000000	0.000000	0.000000	0.000000	0.000000	
61555	0.340889	0.055518	9.707049	-0.021660	0.101399	0.044962	0.143113	0.323085	0.343223	-0.392887	-1.882609	-7.798192	0.000000000	0.000000000	0.000000	0.000000	0.000000	0.000000	
61556	0.351382	-0.039524	9.722921	-0.040962	0.100062	0.033217	0.150550	0.317718	0.351044	-0.410289	-1.832869	-7.779375	0.000000000	0.000000000	0.000000	0.000000	0.000000	0.000000	
61557	0.296184	-0.224292	9.686195	-0.030812	0.093321	0.079703	0.143054	0.323771	0.343848	-0.423129	-1.786652	-7.739409	0.000000000	0.000000000	0.000000	0.000000	0.000000	0.000000	
61558	0.269900	-0.237843	9.707044	-0.036609	0.081286	0.087891	0.149729	0.317679	0.351713	-0.439230	-1.745670	-7.695471	0.000000000	0.000000000	0.000000	0.000000	0.000000	0.000000	
61559	0.236752	-0.041345	9.863531	-0.029651	0.084229	0.085254	0.142704	0.321939	0.344673	-0.451590	-1.703714	-7.652844	0.000000000	0.000000000	0.000000	0.000000	0.000000	0.000000	
61560	0.411698	0.054367	9.920840	-0.026316	0.093293	0.061455	0.149377	0.316831	0.351296	-0.462339	-1.657080	-7.621189	0.000000000	0.000000000	0.000000	0.000000	0.000000	0.000000	
61561	0.438627	0.015879	9.788061	-0.030238	0.098408	0.059986	0.143543	0.323254	0.342885	-0.474491	-1.608523	-7.590705	0.000000000	0.000000000	0.000000	0.000000	0.000000	0.000000	
61562	0.353114	0.009428	9.728078	-0.019295	0.103176	0.057914	0.149252	0.316497	0.351025	-0.481786	-1.557174	-7.560699	0.000000000	0.000000000	0.000000	0.000000	0.000000	0.000000	
61563	0.340948	-0.065409	9.726378	-0.029172	0.111996	0.081698	0.143170	0.322552	0.345785	-0.493619	-1.502079	-7.519919	0.000000000	0.000000000	0.000000	0.000000	0.000000	0.000000	
61564	0.282598	-0.106500	9.757558	-0.029645	0.111981	0.085222	0.150112	0.316281	0.353302	-0.506134	-1.446401	-7.476554	0.000000000	0.000000000	0.000000	0.000000	0.000000	0.000000	
61565	0.308879	-0.102958	9.829180	-0.033555	0.118279	0.087366	0.142232	0.321894	0.344999	-0.520067	-1.388285	-7.433119	0.000000000	0.000000000	0.000000	0.000000	0.000000	0.000000	
61566	0.386639	-0.061425	9.871145	-0.037510	0.121200	0.100318	0.148579	0.316375	0.351854	-0.536421	-1.328117	-7.383773	0.000000000	0.000000000	0.000000	0.000000	0.000000	0.000000	
61567	0.490295	-0.069342	9.823989	-0.031662	0.118013	0.102991	0.142401	0.321396	0.345049	-0.549519	-1.270170	-7.332905	0.000000000	0.000000000	0.000000	0.000000	0.000000	0.000000	
61568	0.380872	-0.079624	9.794914	-0.024018	0.119787	0.091445	0.150251	0.315485	0.352429	-0.559237	-1.210696	-7.286147	0.000000000	0.000000000	0.000000	0.000000	0.000000	0.000000	
61569	0.028739	-0.115533	9.801880	-0.015347	0.135309	0.087156	0.144066	0.322058	0.345818	-0.564289	-1.144533	-7.242942	0.000000000	0.000000000	0.000000	0.000000	0.000000	0.000000	
61570	-0.171741	-0.132400	9.833777	-0.021833	0.118008	0.095202	0.150502	0.314599	0.353707	-0.572899	-1.085879	-7.195003	0.000000000	0.000000000	0.000000	0.000000	0.000000	0.000000	
61571	-0.013064	-0.160187	9.781699	-0.021121	0.116839	0.086353	0.143409	0.321098	0.347486	-0.580653	-1.028319	-7.152112	0.000000000	0.000000000	0.000000	0.000000	0.000000	0.000000	
61572	0.130880	-0.037439	9.781401	-0.016776	0.104619	0.063617	0.149797	0.314886	0.353847	-0.586493	-0.976198	-7.119857	0.000000000	0.000000000	0.000000	0.000000	0.000000	0.000000	
61573	0.104119	-0.036678	9.738925	0.002551	0.093743	0.033985	0.142658	0.319942	0.344890	-0.582416	-0.929870	-7.101871	0.000000000	0.000000000	0.000000	0.000000	0.000000	0.000000	
61574	-0.043197	-0.080855	9.704802	-0.008774	0.081185	0.041345	0.149982	0.315095	0.352270	-0.584216	-0.889046	-7.079619	0.000000000	0.000000000	0.000000	0.000000	0.000000	0.000000	
61575	-0.165087	-0.056106	9.732533	-0.012004	0.069911	0.042662	0.143144	0.322115	0.345135	-0.587113	-0.853866	-7.057376	0.000000000	0.000000000	0.000000	0.000000	0.000000	0.000000	
61576	-0.050625	-0.022961	9.708758	-0.012694	0.041454	0.035439	0.148474	0.315065	0.352696	-0.590721	-0.832039	-7.038664	0.000000000	0.000000000	0.000000	0.000000	0.000000	0.000000	
61577	0.012825	-0.057119	9.668427	-0.028401	0.016900	0.040455	0.142942	0.320477	0.344645	-0.601384	-0.822059	-7.017220	0.000000000	0.000000000	0.000000	0.000000	0.000000	0.000000	
61578	-0.100227	-0.024898	9.665695	-0.031014	0.003271	0.030162	0.149262	0.313407	0.355026	-0.613698	-0.818482	-6.999624	0.000000000	0.000000000	0.000000	0.000000	0.000000	0.000000	
61579	-0.079494	-0.003667	9.680630	-0.029026	-0.003268	0.021460	0.143303	0.320772	0.347085	-0.624474	-0.818059	-6.987152	0.000000000	0.000000000	0.000000	0.000000	0.000000	0.000000	
61580	0.085850	-0.010016	9.707339	-0.032586	-0.016086	0.015626	0.148983	0.314562	0.353332	-0.637440	-0.823794	-6.977354	0.000000000	0.000000000	0.000000	0.000000	0.000000	0.000000	
61581	0.178384	-0.066807	9.724364	-0.020717	-0.015018	0.011063	0.142057	0.319710	0.346401	-0.644141	-0.829027	-6.969785	0.000000000	0.000000000	0.000000	0.000000	0.000000	0.000000	
61582	0.095519	-0.187803	9.723001	-0.017722	-0.007814	0.009673	0.150076	0.315283	0.354805	-0.649970	-0.830841	-6.962171	0.000000000	0.000000000	0.000000	0.000000	0.000000	0.000000	
61583	0.069805	-0.237339	9.758482	-0.009197	-0.013117	0.006406	0.143452	0.320259	0.345535	-0.651219	-0.835151	-6.956834	0.000000000	0.000000000	0.000000	0.000000	0.000000	0.000000	
61584	0.104066	-0.299241	9.787271	-0.007902	-0.009340	0.028213	0.149701	0.313575	0.353758	-0.652490	-0.837592	-6.940608	0.000000000	0.000000000	0.000000	0.000000	0.000000	0.000000	
61585	0.130804	-0.281575	9.868707	0.008255	-0.016909	0.047657	0.142551	0.320330	0.346452	-0.645827	-0.843472	-6.915552	0.000000000	0.000000000	0.000000	0.000000	0.000000	0.000000	
61586	0.215503	-0.285819	9.850689	0.007809	-0.014709	0.072821	0.150000	0.315532	0.353850	-0.639914	-0.848240	-6.878435	0.000000000	0.000000000	0.000000	0.000000	0.000000	0.000000	
61587	0.350952	-0.234601	9.790771	0.010995	-0.019843	0.079616	0.144508	0.321250	0.347522	-0.632286	-0.855455	-6.838102	0.000000000	0.000000000	0.000000	0.000000	0.000000	0.000000	
61588	0.355797	-0.207618	9.844986	0.016512	-0.016101	0.084903	0.151110	0.315261	0.352976	-0.622312	-0.860835	-6.794494	0.000000000	0.000000000	0.000000	0.000000	0.000000	0.000000	
61589	0.313427	-0.170657	9.858903	0.014202	-0.009913	0.089944	0.144429	0.319655	0.345319	-0.613294	-0.863398	-6.749280	0.000000000	0.000000000	0.000000	0.000000	0.000000	0.000000	
61590	0.220717	-0.196617	9.836884	0.027689	0.002893	0.087327	0.150723	0.313699	0.354315	-0.598001	-0.859714	-6.705085	0.000000000	0.000000000	0.000000	0.000000	0.000000	0.000000	
61591	0.263253	-0.252095	9.822968	0.026490	0.008949	0.098868	0.144924	0.320282	0.347100	-0.583261	-0.853313	-6.655702	0.000000000	0.000000000	0.000000	0.000000	0.000000	0.000000	
61592	0.287246	-0.242914	9.833450	0.028665	0.018164	0.104572	0.152375	0.313786	0.353777	-0.567613	-0.842278	-6.602594	0.000000000	0.000000000	0.000000	0.000000	0.000000	0.000000	
61593	0.159362	-0.206002	9.845801	0.045875	0.029229	0.094370	0.145088	0.319915	0.345147	-0.543655	-0.826296	-6.555447	0.000000000	0.000000000	0.000000	0.000000	0.000000	0.000000	
61594	0.187455	-0.200191	9.856822	0.052103	0.070375	0.071794	0.152696	0.315326	0.353759	-0.516557	-0.790519	-6.518939	0.000000000	0.000000000	0.000000	0.000000	0.000000	0.000000	
61595	0.184025	-0.215253	9.812543	0.049469	0.064548	0.094830	0.144316	0.320174	0.344878	-0.490916	-0.757744	-6.471704	0.000000000	0.000000000	0.000000	0.000000	0.000000	0.000000	
61596	0.049158	-0.236808	9.750887	0.062787	0.062972	0.102098	0.151662	0.314911	0.352148	-0.458863	-0.725416	-6.420977	0.000000000	0.000000000	0.000000	0.000000	0.000000	0.000000	
61597	-0.012137	-0.258037	9.698954	0.054101	0.052704	0.111653	0.145034	0.322016	0.345309	-0.431175	-0.698202	-6.365632	0.000000000	0.000000000	0.000000	0.000000	0.000000	0.000000	
61598	-0.124157	-0.323936	9.732745	0.069237	0.049008	0.155216	0.153428	0.316038	0.353045	-0.396297	-0.672413	-6.288501	0.000000000	0.000000000	0.000000	0.000000	0.000000	0.000000	
61599	-0.083035	-0.368521	9.733256	0.061772	0.036924	0.175793	0.145780	0.321035	0.344674	-0.365444	-0.652434	-6.202449	0.000000000	0.000000000	0.000000	0.000000	0.000000	0.000000	
61600	-0.123094	-0.362030	9.710935	0.060957	0.016270	0.202703	0.153714	0.314875	0.352079	-0.334725	-0.642222	-6.103057	0.000000000	0.000000000	0.000000	0.000000	0.000000	0.000000	
61601	-0.186453	-0.266883	9.748920	0.048844	0.018093	0.243242	0.148061	0.319815	0.344030	-0.310537	-0.630952	-5.984729	0.000000000	0.000000000	0.000000	0.000000	0.000000	0.000000	
61602	-0.058099	-0.171991	9.717323	0.055590	-0.011289	0.248782	0.155700	0.313819	0.351114	-0.282599	-0.633877	-5.862665	0.000000000	0.000000000	0.000000	0.000000	0.000000	0.000000	
61603	-0.040996	-0.137475	9.675818	0.043975	-0.015044	0.274127	0.149481	0.320240	0.345037	-0.260963	-0.638355	-5.729505	0.000000000	0.000000000	0.000000	0.000000	0.000000	0.000000	
61604	-0.088138	-0.101527	9.708572	0.061445	-0.004635	0.285596	0.156955	0.314603	0.352344	-0.230438	-0.638135	-5.590766	0.000000000	0.000000000	0.000000	0.000000	0.000000	0.000000	
61605	-0.039849	-0.170218	9.695399	0.053826	-0.008258	0.316943	0.150836	0.320206	0.343924	-0.204387	-0.639301	-5.437179	0.000000000	0.000000000	0.000000	0.000000	0.000000	0.000000	
61606	-0.121498	-0.379237	9.596739	0.032413	-0.024009	0.365214	0.158641	0.312582	0.351774	-0.188165	-0.648321	-5.259854	0.000000000	0.000000000	0.000000	0.000000	0.000000	0.000000	
61607	-0.245479	-0.637385	9.536231	0.026440	-0.051414	0.436420	0.152666	0.319517	0.343982	-0.176220	-0.669804	-5.049150	0.000000000	0.000000000	0.000000	0.000000	0.000000	0.000000	
61608	-0.495867	-0.829325	9.519944	-0.006377	-0.065644	0.549622	0.161892	0.312595	0.351362	-0.179695	-0.698485	-4.783979	0.000000000	0.000000000	0.000000	0.000000	0.000000	0.000000	
61609	-0.819799	-0.721393	9.659801	-0.008514	-0.086604	0.687877	0.156556	0.317946	0.344011	-0.186654	-0.735841	-4.453146	0.000000000	0.000000000	0.000000	0.000000	0.000000	0.000000	
61610	-0.704492	-0.354540	9.904262	0.001685	-0.100248	0.770379	0.165321	0.311832	0.351546	-0.188018	-0.780656	-4.083102	0.000000000	0.000000000	0.000000	0.000000	0.000000	0.000000	
61611	-0.193062	0.126735	10.094123	0.031503	-0.100458	0.724338	0.160845	0.316246	0.342778	-0.176624	-0.824169	-3.734833	0.000000000	0.000000000	0.000000	0.000000	0.000000	0.000000	
61612	0.377210	0.483079	9.980085	0.041990	-0.099123	0.664734	0.167986	0.311044	0.350279	-0.158568	-0.868723	-3.415502	0.000000000	0.000000000	0.000000	0.000000	0.000000	0.000000	
61613	0.478792	0.685620	9.833130	0.031857	-0.109288	0.634479	0.165888	0.315279	0.344162	-0.146419	-0.916952	-3.110151	0.000000000	0.000000000	0.000000	0.000000	0.000000	0.000000	
61614	0.402829	0.720421	9.725784	0.024289	-0.100122	0.539718	0.175300	0.309564	0.352182	-0.136357	-0.962276	-2.847868	0.000000000	0.000000000	0.000000	0.000000	0.000000	0.000000	
61615	0.391513	0.755532	9.734068	0.033013	-0.088710	0.461722	0.169723	0.314809	0.342135	-0.122157	-1.001169	-2.625056	0.000000000	0.000000000	0.000000	0.000000	0.000000	0.000000	
61616	0.501761	0.726671	9.726697	-0.000121	-0.099344	0.394018	0.177638	0.307365	0.348929	-0.122889	-1.046355	-2.434016	0.000000000	0.000000000	0.000000	0.000000	0.000000	0.000000	
61617	0.579607	0.668077	9.739346	0.008577	-0.069337	0.294424	0.170883	0.314844	0.342053	-0.118671	-1.076471	-2.291123	0.000000000	0.000000000	0.000000	0.000000	0.000000	0.000000	
61618	0.722833	0.573115	9.704614	0.000155	-0.076113	0.205066	0.177838	0.307166	0.349902	-0.117780	-1.110766	-2.191221	0.000000000	0.000000000	0.000000	0.000000	0.000000	0.000000	
61619	0.563491	0.437599	9.741801	-0.008082	-0.061884	0.135422	0.171883	0.314392	0.342234	-0.119816	-1.137818	-2.124270	0.000000000	0.000000000	0.000000	0.000000	0.000000	0.000000	
61620	0.449878	0.398916	9.797319	-0.027647	-0.070026	0.074996	0.178991	0.307762	0.349527	-0.131054	-1.169331	-2.085815	0.000000000	0.000000000	0.000000	0.000000	0.000000	0.000000	
61621	0.331778	0.323418	9.808392	-0.048383	-0.063801	0.050386	0.173096	0.313034	0.342223	-0.151301	-1.197515	-2.059465	0.000000000	0.000000000	0.000000	0.000000	0.000000	0.000000	
61622	0.309045	0.330459	9.834600	-0.041447	-0.046986	0.047744	0.180388	0.307604	0.348427	-0.168889	-1.218040	-2.033613	0.000000000	0.000000000	0.000000	0.000000	0.000000	0.000000	
61623	0.523617	0.288054	9.853168	-0.046439	-0.053435	0.025510	0.173706	0.315256	0.342486	-0.187750	-1.241447	-2.019144	0.000000000	0.000000000	0.000000	0.000000	0.000000	0.000000	
61624	0.606774	0.227133	9.873817	-0.024932	-0.039194	0.002498	0.180495	0.306662	0.349818	-0.197000	-1.258310	-2.015191	0.000000000	0.000000000	0.000000	0.000000	0.000000	0.000000	
61625	0.472864	0.186963	9.846337	-0.040910	-0.038398	-0.033137	0.174538	0.313043	0.343119	-0.212457	-1.274861	-2.028747	0.000000000	0.000000000	0.000000	0.000000	0.000000	0.000000	
61626	0.315966	0.249664	9.850019	-0.025562	-0.020470	-0.065236	0.180328	0.307729	0.350275	-0.221288	-1.282905	-2.057466	0.000000000	0.000000000	0.000000	0.000000	0.000000	0.000000	
61627	0.406989	0.173407	9.823013	-0.014578	-0.031454	-0.083409	0.173568	0.313793	0.343861	-0.223469	-1.296335	-2.095042	0.000000000	0.000000000	0.000000	0.000000	0.000000	0.000000	
61628	0.359178	0.000421	9.792146	-0.020164	-0.039744	-0.045476	0.179823	0.305549	0.350160	-0.229924	-1.313549	-2.113736	0.000000000	0.000000000	0.000000	0.000000	0.000000	0.000000	
61629	0.067534	0.053499	9.753672	-0.022050	-0.026759	-0.028768	0.173542	0.312087	0.344201	-0.236227	-1.324630	-2.125225	0.000000000	0.000000000	0.000000	0.000000	0.000000	0.000000	
61630	0.213847	0.367703	9.822066	0.015819	-0.009434	-0.073784	0.179957	0.305882	0.349501	-0.225180	-1.327428	-2.157688	0.000000000	0.000000000	0.000000	0.000000	0.000000	0.000000	
61631	0.837891	0.251021	9.770532	-0.004180	-0.048549	-0.099777	0.171829	0.312673	0.341904	-0.221931	-1.349248	-2.203055	0.000000000	0.000000000	0.000000	0.000000	0.000000	0.000000	
61632	0.548581	0.024232	9.700384	-0.015309	-0.019954	-0.049269	0.180025	0.306909	0.352127	-0.226009	-1.357019	-2.223984	0.000000000	0.000000000	0.000000	0.000000	0.000000	0.000000	
61633	0.277291	-0.186834	9.703215	-0.016318	0.039238	-0.045966	0.173453	0.315296	0.342178	-0.229201	-1.336948	-2.243815	0.000000000	0.000000000	0.000000	0.000000	0.000000	0.000000	
61634	0.228959	-0.279438	9.769727	-0.027853	0.023976	-0.014278	0.178966	0.307332	0.350607	-0.239663	-1.323679	-2.248406	0.000000000	0.000000000	0.000000	0.000000	0.000000	0.000000	
61635	0.196458	-0.204834	9.884778	-0.026384	0.019295	-0.003269	0.171736	0.313483	0.341586	-0.248303	-1.313031	-2.247805	0.000000000	0.000000000	0.000000	0.000000	0.000000	0.000000	
61636	0.153943	-0.062306	9.930443	-0.009033	0.018179	-0.019718	0.179090	0.307382	0.350625	-0.249721	-1.302543	-2.254507	0.000000000	0.000000000	0.000000	0.000000	0.000000	0.000000	
61637	0.307721	0.072295	9.877916	-0.002311	0.008904	-0.061927	0.172585	0.312975	0.342809	-0.246218	-1.296974	-2.281899	0.000000000	0.000000000	0.000000	0.000000	0.000000	0.000000	
61638	0.425011	0.060839	9.800920	-0.000059	-0.007601	-0.056143	0.178248	0.307043	0.349441	-0.242959	-1.298869	-2.306160	0.000000000	0.000000000	0.000000	0.000000	0.000000	0.000000	
61639	0.316159	0.008169	9.728061	0.016415	0.011567	-0.057449	0.172281	0.313140	0.343419	-0.230531	-1.292111	-2.331418	0.000000000	0.000000000	0.000000	0.000000	0.000000	0.000000	
61640	0.179771	-0.104903	9.700164	-0.011001	0.015387	-0.054209	0.177159	0.306898	0.350205	-0.232522	-1.283020	-2.354945	0.000000000	0.000000000	0.000000	0.000000	0.000000	0.000000	
61641	0.221771	-0.226896	9.729902	0.000550	0.006470	-0.039900	0.171410	0.314064	0.342306	-0.227971	-1.278638	-2.371808	0.000000000	0.000000000	0.000000	0.000000	0.000000	0.000000	
61642	0.208283	-0.322522	9.786412	0.001603	0.003301	-0.016322	0.177237	0.307211	0.349937	-0.224352	-1.275245	-2.376899	0.000000000	0.000000000	0.000000	0.000000	0.000000	0.000000	
61643	0.146845	-0.308039	9.836721	-0.010318	0.009006	0.003548	0.171838	0.314663	0.343678	-0.225664	-1.269533	-2.373011	0.000000000	0.000000000	0.000000	0.000000	0.000000	0.000000	
61644	0.106346	-0.267848	9.846022	0.012450	0.001653	0.009505	0.178398	0.308521	0.350596	-0.217139	-1.266878	-2.365575	0.000000000	0.000000000	0.000000	0.000000	0.000000	0.000000	
61645	0.139115	-0.169495	9.816400	0.013886	-0.008777	0.024124	0.172730	0.314869	0.342214	-0.207254	-1.269548	-2.351825	0.000000000	0.000000000	0.000000	0.000000	0.000000	0.000000	
61646	0.137937	-0.087695	9.774971	0.003889	-0.011480	0.019978	0.178563	0.308162	0.350372	-0.202929	-1.273148	-2.339519	0.000000000	0.000000000	0.000000	0.000000	0.000000	0.000000	
61647	0.092111	0.028889	9.771492	0.019580	0.007326	0.018559	0.173106	0.315862	0.341298	-0.190275	-1.268066	-2.328454	0.000000000	0.000000000	0.000000	0.000000	0.000000	0.000000	
61648	0.216342	0.145578	9.778316	0.012062	-0.005122	-0.002280	0.178829	0.307983	0.350024	-0.181811	-1.268668	-2.326699	0.000000000	0.000000000	0.000000	0.000000	0.000000	0.000000	
61649	0.270296	0.118171	9.746472	0.015397	-0.005688	-0.003583	0.172331	0.312731	0.342247	-0.170819	-1.269852	-2.326190	0.000000000	0.000000000	0.000000	0.000000	0.000000	0.000000	
61650	0.171487	0.018376	9.694353	0.007877	-0.014738	0.000737	0.177354	0.309374	0.348926	-0.164386	-1.275041	-2.324090	0.000000000	0.000000000	0.000000	0.000000	0.000000	0.000000	
61651	0.147405	-0.028979	9.710583	0.016146	-0.012767	0.005521	0.170976	0.313042	0.341883	-0.153132	-1.279549	-2.319225	0.000000000	0.000000000	0.000000	0.000000	0.000000	0.000000	
61652	0.183605	-0.008235	9.771368	0.000814	-0.011247	0.013237	0.178351	0.308069	0.348346	-0.150205	-1.283057	-2.309581	0.000000000	0.000000000	0.000000	0.000000	0.000000	0.000000	
61653	0.239828	0.016372	9.829936	0.008119	-0.006611	0.002592	0.172177	0.314935	0.342788	-0.142746	-1.284620	-2.306124	0.000000000	0.000000000	0.000000	0.000000	0.000000	0.000000	
61654	0.186448	0.024206	9.842362	-0.004376	-0.027008	-0.014483	0.178980	0.310022	0.349955	-0.142001	-1.295688	-2.310501	0.000000000	0.000000000	0.000000	0.000000	0.000000	0.000000	
61655	0.163746	0.091273	9.810240	0.006279	-0.004993	-0.024719	0.171436	0.314777	0.341479	-0.135083	-1.296475	-2.320090	0.000000000	0.000000000	0.000000	0.000000	0.000000	0.000000	
61656	0.262794	0.162900	9.794210	0.001612	-0.018866	-0.040649	0.176474	0.308745	0.349479	-0.131195	-1.303683	-2.337610	0.000000000	0.000000000	0.000000	0.000000	0.000000	0.000000	
61657	0.297179	0.122939	9.750031	-0.007569	-0.006488	-0.047373	0.171086	0.314221	0.343045	-0.130541	-1.305243	-2.358020	0.000000000	0.000000000	0.000000	0.000000	0.000000	0.000000	
61658	0.302045	0.108681	9.740921	-0.005455	-0.014210	-0.060557	0.177839	0.308718	0.349166	-0.129807	-1.310249	-2.383564	0.000000000	0.000000000	0.000000	0.000000	0.000000	0.000000	
61659	0.329651	0.033939	9.742043	-0.003102	-0.001958	-0.072823	0.171477	0.314369	0.341238	-0.126691	-1.309734	-2.416134	0.000000000	0.000000000	0.000000	0.000000	0.000000	0.000000	
61660	0.283827	-0.041222	9.772403	-0.016210	-0.006127	-0.078294	0.176751	0.307582	0.349443	-0.130897	-1.310899	-2.450927	0.000000000	0.000000000	0.000000	0.000000	0.000000	0.000000	
61661	0.226457	-0.119354	9.798798	-0.004893	0.006430	-0.085699	0.172344	0.314860	0.342818	-0.128554	-1.306408	-2.489654	0.000000000	0.000000000	0.000000	0.000000	0.000000	0.000000	
61662	0.187531	-0.164211	9.837406	-0.008501	-0.001641	-0.077202	0.177277	0.308070	0.348707	-0.129094	-1.305431	-2.523493	0.000000000	0.000000000	0.000000	0.000000	0.000000	0.000000	
61663	0.171083	-0.143095	9.830392	-0.024874	0.006447	-0.067868	0.170499	0.314689	0.341200	-0.136597	-1.300877	-2.553701	0.000000000	0.000000000	0.000000	0.000000	0.000000	0.000000	
61664	0.227160	-0.042138	9.837926	-0.011992	0.004515	-0.063317	0.174754	0.309622	0.350096	-0.138957	-1.296949	-2.582560	0.000000000	0.000000000	0.000000	0.000000	0.000000	0.000000	
61665	0.317814	0.027544	9.811050	-0.002870	0.012266	-0.068310	0.170813	0.313970	0.342614	-0.135957	-1.289649	-2.612986	0.000000000	0.000000000	0.000000	0.000000	0.000000	0.000000	
61666	0.336666	0.059762	9.803846	-0.005037	0.027085	-0.069547	0.175690	0.309988	0.348898	-0.134938	-1.274951	-2.642988	0.000000000	0.000000000	0.000000	0.000000	0.000000	0.000000	
61667	0.361027	0.015675	9.768071	-0.010351	0.023164	-0.097296	0.171020	0.315469	0.343377	-0.135188	-1.262563	-2.687268	0.000000000	0.000000000	0.000000	0.000000	0.000000	0.000000	
61668	0.275397	-0.049749	9.783446	-0.013139	0.023243	-0.091409	0.174887	0.308118	0.349919	-0.137823	-1.249725	-2.727967	0.000000000	0.000000000	0.000000	0.000000	0.000000	0.000000	
61669	0.154350	-0.092579	9.828242	-0.027779	0.030032	-0.083642	0.170147	0.314832	0.341270	-0.146603	-1.234039	-2.765734	0.000000000	0.000000000	0.000000	0.000000	0.000000	0.000000	
61670	0.181186	-0.080175	9.826936	-0.007728	0.049827	-0.084399	0.174331	0.308884	0.348997	-0.146750	-1.208507	-2.803500	0.000000000	0.000000000	0.000000	0.000000	0.000000	0.000000	
61671	0.205624	-0.065467	9.796111	-0.014965	0.041289	-0.090819	0.169424	0.315396	0.341794	-0.149417	-1.187442	-2.844708	0.000000000	0.000000000	0.000000	0.000000	0.000000	0.000000	
61672	0.192076	-0.069384	9.750508	-0.000453	0.042301	-0.064444	0.173549	0.310135	0.350145	-0.146316	-1.165478	-2.873164	0.000000000	0.000000000	0.000000	0.000000	0.000000	0.000000	
61673	0.079525	-0.053489	9.738089	-0.008849	0.037452	-0.066578	0.169288	0.315493	0.344164	-0.146365	-1.146162	-2.902788	0.000000000	0.000000000	0.000000	0.000000	0.000000	0.000000	
61674	0.162515	0.003181	9.771029	-0.015102	0.039280	-0.054854	0.174509	0.308824	0.351556	-0.150370	-1.125630	-2.925407	0.000000000	0.000000000	0.000000	0.000000	0.000000	0.000000	
61675	0.178844	-0.007053	9.782908	0.001173	0.036941	-0.066914	0.167992	0.315118	0.343175	-0.145648	-1.106537	-2.955191	0.000000000	0.000000000	0.000000	0.000000	0.000000	0.000000	
61676	0.188065	-0.120511	9.769385	0.002268	0.044089	-0.054147	0.174536	0.310099	0.349507	-0.141382	-1.083706	-2.978346	0.000000000	0.000000000	0.000000	0.000000	0.000000	0.000000	
61677	0.118720	-0.172123	9.757725	-0.002673	0.036643	-0.059357	0.166788	0.314923	0.342991	-0.138684	-1.064713	-3.004515	0.000000000	0.000000000	0.000000	0.000000	0.000000	0.000000	
61678	0.099889	-0.117291	9.796678	-0.008923	0.038473	-0.047664	0.173403	0.308241	0.350740	-0.139835	-1.044554	-3.024524	0.000000000	0.000000000	0.000000	0.000000	0.000000	0.000000	
61679	0.177018	-0.034331	9.826442	0.016075	0.033557	-0.051262	0.167813	0.315616	0.344055	-0.128320	-1.026989	-3.046821	0.000000000	0.000000000	0.000000	0.000000	0.000000	0.000000	
61680	0.246082	-0.035982	9.796626	0.007258	0.026821	-0.065998	0.172065	0.310258	0.350967	-0.121603	-1.012408	-3.076437	0.000000000	0.000000000	0.000000	0.000000	0.000000	0.000000	
61681	0.223157	-0.044030	9.754646	0.001968	0.026304	-0.068565	0.166675	0.315165	0.344026	-0.116715	-0.998355	-3.106983	0.000000000	0.000000000	0.000000	0.000000	0.000000	0.000000	
61682	0.209559	-0.056723	9.738232	-0.001043	0.023159	-0.065393	0.172839	0.310560	0.350013	-0.113980	-0.985516	-3.134977	0.000000000	0.000000000	0.000000	0.000000	0.000000	0.000000	
61683	0.084666	-0.076526	9.755776	0.005455	0.023051	-0.048293	0.166277	0.316133	0.342588	-0.107649	-0.972974	-3.155837	0.000000000	0.000000000	0.000000	0.000000	0.000000	0.000000	
61684	0.012414	-0.066072	9.780313	-0.003597	0.026466	-0.056819	0.172216	0.310029	0.349671	-0.106216	-0.958545	-3.180246	0.000000000	0.000000000	0.000000	0.000000	0.000000	0.000000	
61685	-0.011326	-0.049194	9.801535	0.000907	0.004275	-0.064245	0.165970	0.315729	0.342690	-0.101976	-0.954859	-3.208706	0.000000000	0.000000000	0.000000	0.000000	0.000000	0.000000	
61686	0.039036	-0.027516	9.774144	-0.002482	-0.000569	-0.053010	0.172551	0.310163	0.349984	-0.100046	-0.953332	-3.231005	0.000000000	0.000000000	0.000000	0.000000	0.000000	0.000000	
61687	0.089569	0.014872	9.737066	0.001444	0.009040	-0.054259	0.165139	0.316958	0.343300	-0.095633	-0.947288	-3.254700	0.000000000	0.000000000	0.000000	0.000000	0.000000	0.000000	
61688	0.183560	0.015812	9.732451	0.015508	-0.003017	-0.062997	0.171471	0.309741	0.351295	-0.085038	-0.946934	-3.282306	0.000000000	0.000000000	0.000000	0.000000	0.000000	0.000000	
61689	0.174986	0.013779	9.762955	0.006980	-0.006687	-0.060611	0.165444	0.315525	0.343680	-0.077920	-0.948408	-3.309021	0.000000000	0.000000000	0.000000	0.000000	0.000000	0.000000	
61690	0.193404	0.019850	9.765396	0.019897	-0.003211	-0.065964	0.170880	0.310070	0.350653	-0.065205	-0.948138	-3.337966	0.000000000	0.000000000	0.000000	0.000000	0.000000	0.000000	
61691	0.190953	-0.025849	9.774751	0.002919	0.000269	-0.080997	0.164764	0.315250	0.342253	-0.059869	-0.946313	-3.374420	0.000000000	0.000000000	0.000000	0.000000	0.000000	0.000000	
61692	0.157400	-0.062065	9.784875	0.005409	-0.004042	-0.071635	0.171417	0.310566	0.350716	-0.054028	-0.946435	-3.405550	0.000000000	0.000000000	0.000000	0.000000	0.000000	0.000000	
61693	0.160621	-0.103512	9.777948	0.013350	0.004515	-0.070505	0.164190	0.317008	0.343678	-0.043856	-0.942565	-3.436994	0.000000000	0.000000000	0.000000	0.000000	0.000000	0.000000	
61694	0.137464	-0.143240	9.782141	0.029253	-0.012031	-0.050194	0.169976	0.310841	0.350074	-0.026800	-0.946483	-3.458781	0.000000000	0.000000000	0.000000	0.000000	0.000000	0.000000	
61695	0.154576	-0.122941	9.767391	0.013172	0.000288	-0.056119	0.163764	0.316977	0.342813	-0.016923	-0.944602	-3.483351	0.000000000	0.000000000	0.000000	0.000000	0.000000	0.000000	
61696	0.108307	-0.110957	9.792931	0.023342	0.004028	-0.034878	0.168132	0.311945	0.349196	-0.002810	-0.940842	-3.498241	0.000000000	0.000000000	0.000000	0.000000	0.000000	0.000000	
61697	0.159313	-0.105696	9.794809	0.030401	0.010689	-0.042866	0.163960	0.318185	0.342523	0.015105	-0.933962	-3.516479	0.000000000	0.000000000	0.000000	0.000000	0.000000	0.000000	
61698	0.180032	-0.109473	9.792675	0.032313	0.003144	-0.033570	0.169832	0.311776	0.350674	0.033488	-0.930616	-3.528821	0.000000000	0.000000000	0.000000	0.000000	0.000000	0.000000	
61699	0.170629	-0.140807	9.786527	0.030539	0.007999	-0.021228	0.163268	0.317065	0.342996	0.051203	-0.925027	-3.536721	0.000000000	0.000000000	0.000000	0.000000	0.000000	0.000000	
61700	0.118202	-0.197217	9.784397	0.017624	-0.003603	-0.019464	0.168125	0.311239	0.349893	0.062462	-0.924901	-3.543915	0.000000000	0.000000000	0.000000	0.000000	0.000000	0.000000	
61701	-0.004559	-0.224763	9.831418	0.029095	0.006267	-0.005265	0.164220	0.317860	0.341648	0.079205	-0.920072	-3.544188	0.000000000	0.000000000	0.000000	0.000000	0.000000	0.000000	
61702	-0.022269	-0.114391	9.858418	0.033839	0.017956	0.024180	0.170276	0.312090	0.349932	0.097873	-0.909681	-3.528998	0.000000000	0.000000000	0.000000	0.000000	0.000000	0.000000	
61703	0.108450	0.126326	9.846783	0.041646	0.001984	0.030728	0.162182	0.316489	0.342050	0.120328	-0.906850	-3.512085	0.000000000	0.000000000	0.000000	0.000000	0.000000	0.000000	
61704	0.372869	0.334292	9.845473	0.053556	0.009131	-0.007139	0.169178	0.311938	0.349896	0.148648	-0.900648	-3.513221	0.000000000	0.000000000	0.000000	0.000000	0.000000	0.000000	
61705	0.532758	0.301144	9.742440	0.066148	0.012231	-0.052105	0.163281	0.318194	0.341350	0.183628	-0.893036	-3.535847	0.000000000	0.000000000	0.000000	0.000000	0.000000	0.000000	
61706	0.369916	0.147409	9.686660	0.050263	0.009832	-0.057108	0.168837	0.311659	0.349056	0.210746	-0.886417	-3.560214	0.000000000	0.000000000	0.000000	0.000000	0.000000	0.000000	
61707	0.151193	0.068922	9.718504	0.045150	0.034698	-0.067838	0.162624	0.318779	0.340553	0.235855	-0.868100	-3.590303	0.000000000	0.000000000	0.000000	0.000000	0.000000	0.000000	
61708	0.088021	0.018042	9.797709	0.045963	0.046061	-0.065945	0.168729	0.313592	0.348153	0.260966	-0.844142	-3.619053	0.000000000	0.000000000	0.000000	0.000000	0.000000	0.000000	
61709	0.060405	0.020734	9.874377	0.050908	0.055856	-0.089562	0.161905	0.320196	0.341837	0.288927	-0.815591	-3.659449	0.000000000	0.000000000	0.000000	0.000000	0.000000	0.000000	
61710	0.111241	-0.023931	9.803160	0.039399	0.069514	-0.090317	0.166605	0.313461	0.349016	0.311036	-0.780348	-3.700182	0.000000000	0.000000000	0.000000	0.000000	0.000000	0.000000	
61711	0.102567	0.013533	9.704709	0.053645	0.044801	-0.061245	0.161356	0.317857	0.341456	0.340035	-0.757094	-3.727061	0.000000000	0.000000000	0.000000	0.000000	0.000000	0.000000	
61712	0.094920	0.035538	9.689123	0.047263	0.037658	-0.049551	0.166721	0.313511	0.349964	0.365610	-0.737144	-3.747513	0.000000000	0.000000000	0.000000	0.000000	0.000000	0.000000	
61713	0.109685	-0.019350	9.720212	0.044892	0.033524	-0.033664	0.161006	0.318846	0.340557	0.390203	-0.719318	-3.761235	0.000000000	0.000000000	0.000000	0.000000	0.000000	0.000000	
61714	0.036944	-0.089450	9.734852	0.037397	0.031937	-0.002338	0.166656	0.314328	0.348586	0.410774	-0.702238	-3.759523	0.000000000	0.000000000	0.000000	0.000000	0.000000	0.000000	
61715	-0.108237	-0.118555	9.754571	0.016881	0.003686	0.028041	0.161787	0.319578	0.340382	0.421503	-0.698752	-3.743873	0.000000000	0.000000000	0.000000	0.000000	0.000000	0.000000	
61716	-0.147991	-0.048010	9.817549	0.007098	-0.003897	0.059042	0.167716	0.313467	0.346665	0.427252	-0.698999	-3.712387	0.000000000	0.000000000	0.000000	0.000000	0.000000	0.000000	
61717	-0.161535	-0.006297	9.820678	0.015831	-0.012042	0.091804	0.161363	0.318564	0.340760	0.437036	-0.703065	-3.666347	0.000000000	0.000000000	0.000000	0.000000	0.000000	0.000000	
61718	-0.152883	0.054531	9.795124	0.021991	-0.017088	0.076482	0.168495	0.314630	0.348201	0.449789	-0.709684	-3.627295	0.000000000	0.000000000	0.000000	0.000000	0.000000	0.000000	
61719	-0.064716	0.309306	9.814389	0.028085	-0.032950	0.080971	0.161880	0.319052	0.340954	0.465551	-0.723555	-3.586513	0.000000000	0.000000000	0.000000	0.000000	0.000000	0.000000	
61720	0.297600	0.483341	9.774866	0.030531	-0.031874	0.045392	0.168325	0.312861	0.346923	0.482556	-0.737132	-3.562181	0.000000000	0.000000000	0.000000	0.000000	0.000000	0.000000	
61721	0.427736	0.421401	9.728709	0.034499	-0.043791	-0.004383	0.161996	0.319655	0.338949	0.502147	-0.756025	-3.562209	0.000000000	0.000000000	0.000000	0.000000	0.000000	0.000000	
61722	0.258260	0.371094	9.759794	0.037058	-0.021556	-0.034704	0.167732	0.313897	0.346515	0.522763	-0.764350	-3.576624	0.000000000	0.000000000	0.000000	0.000000	0.000000	0.000000	
61723	0.152283	0.301809	9.779778	0.026280	-0.002971	-0.041702	0.162307	0.318368	0.339855	0.538834	-0.763644	-3.594306	0.000000000	0.000000000	0.000000	0.000000	0.000000	0.000000	
61724	0.132132	0.223972	9.747814	0.012341	-0.015288	-0.044574	0.167819	0.314217	0.347047	0.547712	-0.768924	-3.612844	0.000000000	0.000000000	0.000000	0.000000	0.000000	0.000000	
61725	0.094225	0.286957	9.762353	0.018070	-0.021876	-0.066267	0.161733	0.319411	0.339317	0.560130	-0.777112	-3.642344	0.000000000	0.000000000	0.000000	0.000000	0.000000	0.000000	
61726	0.271120	0.444693	9.819994	0.024655	-0.022689	-0.097695	0.168382	0.314158	0.347273	0.575239	-0.785666	-3.685901	0.000000000	0.000000000	0.000000	0.000000	0.000000	0.000000	
61727	0.384560	0.324366	9.771560	0.015642	-0.025214	-0.124137	0.161658	0.318676	0.339604	0.587078	-0.795290	-3.743055	0.000000000	0.000000000	0.000000	0.000000	0.000000	0.000000	
61728	0.120353	0.182918	9.731606	0.004433	-0.016087	-0.084413	0.166705	0.313911	0.345685	0.592457	-0.800741	-3.781172	0.000000000	0.000000000	0.000000	0.000000	0.000000	0.000000	
